"success","timeout","failed_images","failed_audio","failed_video","trial_type","trial_index","time_elapsed","internal_node_id","participant_id","PID","start_time","rt","response","view_history","question_order","stimulus","task","choice","player_num","trial_num","binned_trial_num","reward","prop_return","prop_return_noise","survey_type","source_partner_0","source_name_0","target_name_0","correct_0","source_partner_2","source_name_2","target_name_2","correct_2","total_correct","total_questions","accuracy"
true,false,"[]","[]","[]","preload",0,4959,"0.0-0.0","67cdc3c7ea7918dcd6f2ab2d",,,,,,,,,,,,,,,,,,,,,,,,,,,
true,,,,,"fullscreen",1,15131,"0.0-1.0","67cdc3c7ea7918dcd6f2ab2d",,,9162,,,,,,,,,,,,,,,,,,,,,,,,
,,,,,"survey-html-form",2,18275,"0.0-2.0","67cdc3c7ea7918dcd6f2ab2d",,,3141,"{""participant_id"":""67cdc3c7ea7918dcd6f2ab2d""}",,,,,,,,,,,,,,,,,,,,,,,
,,,,,"survey-html-form",3,110113,"0.0-3.0","67cdc3c7ea7918dcd6f2ab2d",,,91836,"{""session_username"":""CHTH08""}",,,,,,,,,,,,,,,,,,,,,,,
,,,,,"instructions",4,116954,"0.0-4.0","67cdc3c7ea7918dcd6f2ab2d",,,6839,,"[{""page_index"":0,""viewing_time"":6839}]",,,,,,,,,,,,,,,,,,,,,,
,,,,,"instructions",5,323232,"0.0-5.0-0.0","67cdc3c7ea7918dcd6f2ab2d",,,206277,,"[{""page_index"":0,""viewing_time"":31802},{""page_index"":1,""viewing_time"":66711},{""page_index"":2,""viewing_time"":42720},{""page_index"":3,""viewing_time"":65043}]",,,,,,,,,,,,,,,,,,,,,,
,,,,,"survey-multi-choice",6,537943,"0.0-5.0-1.0","67cdc3c7ea7918dcd6f2ab2d",,,214708,"{""min_max"":""<span style='font-family: Times New Roman, Times, serif; font-size: 18px;'>$1 minimum, $10 maximum</span>"",""scenario_1"":""<span style='font-family: Times New Roman, Times, serif; font-size: 18px;'>You: $1.50, Partner: $3.50</span>"",""scenario_2"":""<span style='font-family: Times New Roman, Times, serif; font-size: 18px;'>You: $5.00, Partner: $35.00</span>"",""trials_selected"":""<span style='font-family: Times New Roman, Times, serif; font-size: 18px;'>4 trials</span>""}",,"[0,1,2,3]",,,,,,,,,,,,,,,,,,,,,
,,,,,"html-keyboard-response",7,548748,"0.0-5.0-2.0","67cdc3c7ea7918dcd6f2ab2d",,,10803," ",,,"<div class=""wrapTextBox""><p style=""font-family: Times New Roman, Times, serif; font-size: 18px; margin-bottom: 20px;""><strong>Comprehension Check Results</strong></p><p style=""font-family: Times New Roman, Times, serif; font-size: 18px; color: green;"">✓ What is the minimum and maximum you can share - Correct</p><p style=""font-family: Times New Roman, Times, serif; font-size: 18px; color: red;"">❌ If you share $1.00 and partner returns $0.50 - Incorrect</p><p style=""font-family: Times New Roman, Times, serif; font-size: 18px; color: red;"">❌ If you share $10.00 and partner returns half - Incorrect</p><p style=""font-family: Times New Roman, Times, serif; font-size: 18px; color: green;"">✓ How many trials determine your bonus payment - Correct</p><p style=""font-family: Times New Roman, Times, serif; color: red; font-weight: bold; margin-top: 20px; font-size: 18px;"">Some answers were incorrect. Please review the instructions and try again.</p></div>",,,,,,,,,,,,,,,,,,,,
,,,,,"instructions",8,683245,"0.0-5.1-0.1","67cdc3c7ea7918dcd6f2ab2d",,,134496,,"[{""page_index"":0,""viewing_time"":2357},{""page_index"":1,""viewing_time"":8480},{""page_index"":2,""viewing_time"":121025},{""page_index"":3,""viewing_time"":2634}]",,,,,,,,,,,,,,,,,,,,,,
,,,,,"survey-multi-choice",9,781462,"0.0-5.1-1.1","67cdc3c7ea7918dcd6f2ab2d",,,98215,"{""min_max"":""<span style='font-family: Times New Roman, Times, serif; font-size: 18px;'>$1 minimum, $10 maximum</span>"",""scenario_1"":""<span style='font-family: Times New Roman, Times, serif; font-size: 18px;'>You: $9.50, Partner: $3.50</span>"",""scenario_2"":""<span style='font-family: Times New Roman, Times, serif; font-size: 18px;'>You: $20.00, Partner: $20.00</span>"",""trials_selected"":""<span style='font-family: Times New Roman, Times, serif; font-size: 18px;'>4 trials</span>""}",,"[0,1,2,3]",,,,,,,,,,,,,,,,,,,,,
,,,,,"html-keyboard-response",10,784876,"0.0-5.1-2.1","67cdc3c7ea7918dcd6f2ab2d",,,3412," ",,,"<div class=""wrapTextBox""><p style=""font-family: Times New Roman, Times, serif; font-size: 18px; margin-bottom: 20px;""><strong>Comprehension Check Results</strong></p><p style=""font-family: Times New Roman, Times, serif; font-size: 18px; color: green;"">✓ What is the minimum and maximum you can share - Correct</p><p style=""font-family: Times New Roman, Times, serif; font-size: 18px; color: green;"">✓ If you share $1.00 and partner returns $0.50 - Correct</p><p style=""font-family: Times New Roman, Times, serif; font-size: 18px; color: green;"">✓ If you share $10.00 and partner returns half - Correct</p><p style=""font-family: Times New Roman, Times, serif; font-size: 18px; color: green;"">✓ How many trials determine your bonus payment - Correct</p><p style=""font-family: Times New Roman, Times, serif; color: green; font-weight: bold; margin-top: 20px; font-size: 18px;"">All answers are correct! You can now proceed to the experiment.</p></div>",,,,,,,,,,,,,,,,,,,,
,,,,,"html-keyboard-response",11,789274,"0.0-6.0","67cdc3c7ea7918dcd6f2ab2d",,,4397," ",,,"[""<div class=\""gameHeader\"">\n        </div>\n    <div class=\""offerCard\"" style=\""height: auto; min-height: 90vh; overflow-y: auto; display: flex; justify-content: center;\"">\n        <div class=\""bidOffer\"" style=\""overflow-y: auto; display: flex; flex-direction: column; justify-content: center;\"">\n    <div class =\""wrapTextBox\"">\n        <p style=\""font-family: 'Times New Roman', Times, serif; font-size: 18px;\"">All participants are ready to begin the session.</p>\n        <p style=\""font-family: 'Times New Roman', Times, serif; font-size: 18px;\"">Four participants have been randomly matched as your partners for this experiment.</p>\n        <p style=\""font-family: 'Times New Roman', Times, serif; font-size: 18px;\""><strong>Press the spacebar to begin the game!</strong></p>\n    </div>\n    </div>\n    </div>""]",,,,,,,,,,,,,,,,,,,,
,,,,,"html-keyboard-response",12,797363,"0.0-7.0","67cdc3c7ea7918dcd6f2ab2d",,,8088," ",,,"<div class=""gameHeader"">
        </div>
    <div class=""offerCard"">
        <div class=""bidOffer"">
            <div class=""instructionsText"">
        <div class =""wrapTextBox"">
            <p><strong>Practice Phase</strong></p>
            <p>Let's practice the task before starting the real experiment.</p>
            <p>You will complete 4 practice trials. These won't count toward your final payment.</p>
            <p>Press the spacebar to begin practice.</p>
        </div>
        </div>
        </div>
    </div>",,,,,,,,,,,,,,,,,,,,
,,,,,"html-keyboard-response",13,801254,"0.0-8.0-0.0","67cdc3c7ea7918dcd6f2ab2d",,,3890,"f",,,"<div class=""gameHeader"">
        </div>
    <div class=""offerCard"" style=""height: auto; min-height: 90vh; overflow-y: auto; display: flex; justify-content: center;"">
        <div class=""bidOffer"" style=""overflow-y: auto; display: flex; flex-direction: column; justify-content: center;"">
        <div class=""offers"">
        <div class=""textPrompt""><p style=""font-family: 'Times New Roman', Times, serif; font-size: 18px;"">How much money do you want
        <br>to give Partner?</p></div>
            <div class =""trustElements"">
            <div class=""player1Card""><p class=""player1Image""><img src=""src/images/gray_guy.png"" width=""150""></p>
                <div class=""player1Name""><p style=""font-family: 'Times New Roman', Times, serif; font-size: 18px;"">CHTH08</p></div>
            </div>

                <div class=""investmentCard"">
                    <div id=""leftBlock"" class=""leftBlock"">
                        <p style=""font-family: 'Times New Roman', Times, serif; font-size: 18px;"">$1</p>
                        <p style=""font-family: 'Times New Roman', Times, serif; font-size: 18px; margin-top: 5px; color: #666;"">Press ""F"" key</p>
                    </div>
                    <div id=""rightBlock"" class=""rightBlock"">
                        <p style=""font-family: 'Times New Roman', Times, serif; font-size: 18px;"">$10</p>
                        <p style=""font-family: 'Times New Roman', Times, serif; font-size: 18px; margin-top: 5px; color: #666;"">Press ""J"" key</p>
                    </div>
                </div>

            <div class=""player2Card""><p class=""player2Image""><img src=src/images/blue_guy.png width=""150""></p>
                <div class=""player2Name""><p>Partner</p></div>
            </div>
            </div>
        </div>
        </div>
    </div>","practice_choice",1,0,1,1,1.8,0.4525317141390922,-0.000005087765746761339,,,,,,,,,,,,
,,,,,"html-keyboard-response",14,804750,"0.0-8.0-1.0","67cdc3c7ea7918dcd6f2ab2d",,,,,,,"<div class=""gameHeader"">
        </div>
    <div class=""offerCard"" style=""height: auto; min-height: 90vh; overflow-y: auto; display: flex; justify-content: center;"">
        <div class=""bidOffer"" style=""overflow-y: auto; display: flex; flex-direction: column; justify-content: center;""><div class=""outcomeText""><p style=""font-family: 'Times New Roman', Times, serif; font-size: 18px;"">You selected $1.00</p>

        <p style=""font-family: 'Times New Roman', Times, serif; font-size: 18px;""><br>Your partner is deciding how much to return.</p></div></div>
    </div>",,,,,,,,,,,,,,,,,,,,
,,,,,"html-keyboard-response",15,808764,"0.0-8.0-2.0","67cdc3c7ea7918dcd6f2ab2d",,,,,,,"<div class=""gameHeader"">
        </div>
    <div class=""offerCard"" style=""height: auto; min-height: 90vh; overflow-y: auto; display: flex; justify-content: center;"">
        <div class=""bidOffer"" style=""overflow-y: auto; display: flex; flex-direction: column; justify-content: center;""><div style=""display: flex; flex-direction: column; align-items: center; justify-content: center; width: 100%;"">
            <div class=""player2Card"" style=""margin-bottom: 20px;"">
                <p class=""player2Image""><img src=src/images/blue_guy.png width=""150""></p>
                <div class=""player2Name""><p>Partner</p></div>
            </div>

            <div style=""background-color: #f8f9fa; border-radius: 10px; padding: 15px; text-align: center; max-width: 400px;"">
                <p style=""font-family: 'Times New Roman', Times, serif; font-size: 18px; margin: 0;"">Partner received <strong>$4.00</strong> and returned <strong>$1.80</strong> to you.</p>
            </div>
        </div></div>
    </div>",,,,,,,,,,,,,,,,,,,,
,,,,,"html-keyboard-response",16,811579,"0.0-8.0-3.0-0.0","67cdc3c7ea7918dcd6f2ab2d",,,,,,,"<div class=""gameHeader"">
        </div>
    <div class=""offerCard"" style=""height: auto; min-height: 90vh; overflow-y: auto; display: flex; justify-content: center;"">
        <div class=""bidOffer"" style=""overflow-y: auto; display: flex; flex-direction: column; justify-content: center;""><div class=""outcomeText""><p style=""font-family: 'Times New Roman', Times, serif; font-size: 18px;"">The next round will begin momentarily.</p>

    <p style=""font-family: 'Times New Roman', Times, serif; font-size: 18px;"">Please wait.</p></div></div>
    </div>",,,,,,,,,,,,,,,,,,,,
,,,,,"html-keyboard-response",17,812438,"0.0-8.0-0.1","67cdc3c7ea7918dcd6f2ab2d",,,857,"j",,,"<div class=""gameHeader"">
        </div>
    <div class=""offerCard"" style=""height: auto; min-height: 90vh; overflow-y: auto; display: flex; justify-content: center;"">
        <div class=""bidOffer"" style=""overflow-y: auto; display: flex; flex-direction: column; justify-content: center;"">
        <div class=""offers"">
        <div class=""textPrompt""><p style=""font-family: 'Times New Roman', Times, serif; font-size: 18px;"">How much money do you want
        <br>to give Partner?</p></div>
            <div class =""trustElements"">
            <div class=""player1Card""><p class=""player1Image""><img src=""src/images/gray_guy.png"" width=""150""></p>
                <div class=""player1Name""><p style=""font-family: 'Times New Roman', Times, serif; font-size: 18px;"">CHTH08</p></div>
            </div>

                <div class=""investmentCard"">
                    <div id=""leftBlock"" class=""leftBlock"">
                        <p style=""font-family: 'Times New Roman', Times, serif; font-size: 18px;"">$1</p>
                        <p style=""font-family: 'Times New Roman', Times, serif; font-size: 18px; margin-top: 5px; color: #666;"">Press ""F"" key</p>
                    </div>
                    <div id=""rightBlock"" class=""rightBlock"">
                        <p style=""font-family: 'Times New Roman', Times, serif; font-size: 18px;"">$10</p>
                        <p style=""font-family: 'Times New Roman', Times, serif; font-size: 18px; margin-top: 5px; color: #666;"">Press ""J"" key</p>
                    </div>
                </div>

            <div class=""player2Card""><p class=""player2Image""><img src=src/images/yellow_guy.png width=""150""></p>
                <div class=""player2Name""><p>Partner</p></div>
            </div>
            </div>
        </div>
        </div>
    </div>","practice_choice",10,1,2,1,3.2,0.08954906671101692,-0.009392158005958523,,,,,,,,,,,,
,,,,,"html-keyboard-response",18,815060,"0.0-8.0-1.1","67cdc3c7ea7918dcd6f2ab2d",,,,,,,"<div class=""gameHeader"">
        </div>
    <div class=""offerCard"" style=""height: auto; min-height: 90vh; overflow-y: auto; display: flex; justify-content: center;"">
        <div class=""bidOffer"" style=""overflow-y: auto; display: flex; flex-direction: column; justify-content: center;""><div class=""outcomeText""><p style=""font-family: 'Times New Roman', Times, serif; font-size: 18px;"">You selected $10.00</p>

        <p style=""font-family: 'Times New Roman', Times, serif; font-size: 18px;""><br>Your partner is deciding how much to return.</p></div></div>
    </div>",,,,,,,,,,,,,,,,,,,,
,,,,,"html-keyboard-response",19,819075,"0.0-8.0-2.1","67cdc3c7ea7918dcd6f2ab2d",,,,,,,"<div class=""gameHeader"">
        </div>
    <div class=""offerCard"" style=""height: auto; min-height: 90vh; overflow-y: auto; display: flex; justify-content: center;"">
        <div class=""bidOffer"" style=""overflow-y: auto; display: flex; flex-direction: column; justify-content: center;""><div style=""display: flex; flex-direction: column; align-items: center; justify-content: center; width: 100%;"">
            <div class=""player2Card"" style=""margin-bottom: 20px;"">
                <p class=""player2Image""><img src=src/images/yellow_guy.png width=""150""></p>
                <div class=""player2Name""><p>Partner</p></div>
            </div>

            <div style=""background-color: #f8f9fa; border-radius: 10px; padding: 15px; text-align: center; max-width: 400px;"">
                <p style=""font-family: 'Times New Roman', Times, serif; font-size: 18px; margin: 0;"">Partner received <strong>$40.00</strong> and returned <strong>$3.20</strong> to you.</p>
            </div>
        </div></div>
    </div>",,,,,,,,,,,,,,,,,,,,
,,,,,"html-keyboard-response",20,822561,"0.0-8.0-3.1-0.1","67cdc3c7ea7918dcd6f2ab2d",,,,,,,"<div class=""gameHeader"">
        </div>
    <div class=""offerCard"" style=""height: auto; min-height: 90vh; overflow-y: auto; display: flex; justify-content: center;"">
        <div class=""bidOffer"" style=""overflow-y: auto; display: flex; flex-direction: column; justify-content: center;""><div class=""outcomeText""><p style=""font-family: 'Times New Roman', Times, serif; font-size: 18px;"">The next round will begin momentarily.</p>

    <p style=""font-family: 'Times New Roman', Times, serif; font-size: 18px;"">Please wait.</p></div></div>
    </div>",,,,,,,,,,,,,,,,,,,,
,,,,,"html-keyboard-response",21,823865,"0.0-8.0-0.2","67cdc3c7ea7918dcd6f2ab2d",,,1303,"f",,,"<div class=""gameHeader"">
        </div>
    <div class=""offerCard"" style=""height: auto; min-height: 90vh; overflow-y: auto; display: flex; justify-content: center;"">
        <div class=""bidOffer"" style=""overflow-y: auto; display: flex; flex-direction: column; justify-content: center;"">
        <div class=""offers"">
        <div class=""textPrompt""><p style=""font-family: 'Times New Roman', Times, serif; font-size: 18px;"">How much money do you want
        <br>to give Partner?</p></div>
            <div class =""trustElements"">
            <div class=""player1Card""><p class=""player1Image""><img src=""src/images/gray_guy.png"" width=""150""></p>
                <div class=""player1Name""><p style=""font-family: 'Times New Roman', Times, serif; font-size: 18px;"">CHTH08</p></div>
            </div>

                <div class=""investmentCard"">
                    <div id=""leftBlock"" class=""leftBlock"">
                        <p style=""font-family: 'Times New Roman', Times, serif; font-size: 18px;"">$1</p>
                        <p style=""font-family: 'Times New Roman', Times, serif; font-size: 18px; margin-top: 5px; color: #666;"">Press ""F"" key</p>
                    </div>
                    <div id=""rightBlock"" class=""rightBlock"">
                        <p style=""font-family: 'Times New Roman', Times, serif; font-size: 18px;"">$10</p>
                        <p style=""font-family: 'Times New Roman', Times, serif; font-size: 18px; margin-top: 5px; color: #666;"">Press ""J"" key</p>
                    </div>
                </div>

            <div class=""player2Card""><p class=""player2Image""><img src=src/images/green_guy.png width=""150""></p>
                <div class=""player2Name""><p>Partner</p></div>
            </div>
            </div>
        </div>
        </div>
    </div>","practice_choice",1,2,3,1,1.6,0.42952665325779044,-0.027996696861982237,,,,,,,,,,,,
,,,,,"html-keyboard-response",22,825951,"0.0-8.0-1.2","67cdc3c7ea7918dcd6f2ab2d",,,,,,,"<div class=""gameHeader"">
        </div>
    <div class=""offerCard"" style=""height: auto; min-height: 90vh; overflow-y: auto; display: flex; justify-content: center;"">
        <div class=""bidOffer"" style=""overflow-y: auto; display: flex; flex-direction: column; justify-content: center;""><div class=""outcomeText""><p style=""font-family: 'Times New Roman', Times, serif; font-size: 18px;"">You selected $1.00</p>

        <p style=""font-family: 'Times New Roman', Times, serif; font-size: 18px;""><br>Your partner is deciding how much to return.</p></div></div>
    </div>",,,,,,,,,,,,,,,,,,,,
,,,,,"html-keyboard-response",23,829968,"0.0-8.0-2.2","67cdc3c7ea7918dcd6f2ab2d",,,,,,,"<div class=""gameHeader"">
        </div>
    <div class=""offerCard"" style=""height: auto; min-height: 90vh; overflow-y: auto; display: flex; justify-content: center;"">
        <div class=""bidOffer"" style=""overflow-y: auto; display: flex; flex-direction: column; justify-content: center;""><div style=""display: flex; flex-direction: column; align-items: center; justify-content: center; width: 100%;"">
            <div class=""player2Card"" style=""margin-bottom: 20px;"">
                <p class=""player2Image""><img src=src/images/green_guy.png width=""150""></p>
                <div class=""player2Name""><p>Partner</p></div>
            </div>

            <div style=""background-color: #f8f9fa; border-radius: 10px; padding: 15px; text-align: center; max-width: 400px;"">
                <p style=""font-family: 'Times New Roman', Times, serif; font-size: 18px; margin: 0;"">Partner received <strong>$4.00</strong> and returned <strong>$1.60</strong> to you.</p>
            </div>
        </div></div>
    </div>",,,,,,,,,,,,,,,,,,,,
,,,,,"html-keyboard-response",24,833354,"0.0-8.0-3.2-0.2","67cdc3c7ea7918dcd6f2ab2d",,,,,,,"<div class=""gameHeader"">
        </div>
    <div class=""offerCard"" style=""height: auto; min-height: 90vh; overflow-y: auto; display: flex; justify-content: center;"">
        <div class=""bidOffer"" style=""overflow-y: auto; display: flex; flex-direction: column; justify-content: center;""><div class=""outcomeText""><p style=""font-family: 'Times New Roman', Times, serif; font-size: 18px;"">The next round will begin momentarily.</p>

    <p style=""font-family: 'Times New Roman', Times, serif; font-size: 18px;"">Please wait.</p></div></div>
    </div>",,,,,,,,,,,,,,,,,,,,
,,,,,"html-keyboard-response",25,834266,"0.0-8.0-0.3","67cdc3c7ea7918dcd6f2ab2d",,,910,"f",,,"<div class=""gameHeader"">
        </div>
    <div class=""offerCard"" style=""height: auto; min-height: 90vh; overflow-y: auto; display: flex; justify-content: center;"">
        <div class=""bidOffer"" style=""overflow-y: auto; display: flex; flex-direction: column; justify-content: center;"">
        <div class=""offers"">
        <div class=""textPrompt""><p style=""font-family: 'Times New Roman', Times, serif; font-size: 18px;"">How much money do you want
        <br>to give Partner?</p></div>
            <div class =""trustElements"">
            <div class=""player1Card""><p class=""player1Image""><img src=""src/images/gray_guy.png"" width=""150""></p>
                <div class=""player1Name""><p style=""font-family: 'Times New Roman', Times, serif; font-size: 18px;"">CHTH08</p></div>
            </div>

                <div class=""investmentCard"">
                    <div id=""leftBlock"" class=""leftBlock"">
                        <p style=""font-family: 'Times New Roman', Times, serif; font-size: 18px;"">$1</p>
                        <p style=""font-family: 'Times New Roman', Times, serif; font-size: 18px; margin-top: 5px; color: #666;"">Press ""F"" key</p>
                    </div>
                    <div id=""rightBlock"" class=""rightBlock"">
                        <p style=""font-family: 'Times New Roman', Times, serif; font-size: 18px;"">$10</p>
                        <p style=""font-family: 'Times New Roman', Times, serif; font-size: 18px; margin-top: 5px; color: #666;"">Press ""J"" key</p>
                    </div>
                </div>

            <div class=""player2Card""><p class=""player2Image""><img src=src/images/red_guy.png width=""150""></p>
                <div class=""player2Name""><p>Partner</p></div>
            </div>
            </div>
        </div>
        </div>
    </div>","practice_choice",1,3,4,2,1.6,0.4304545365314463,-0.020725017411231325,,,,,,,,,,,,
,,,,,"html-keyboard-response",26,836487,"0.0-8.0-1.3","67cdc3c7ea7918dcd6f2ab2d",,,,,,,"<div class=""gameHeader"">
        </div>
    <div class=""offerCard"" style=""height: auto; min-height: 90vh; overflow-y: auto; display: flex; justify-content: center;"">
        <div class=""bidOffer"" style=""overflow-y: auto; display: flex; flex-direction: column; justify-content: center;""><div class=""outcomeText""><p style=""font-family: 'Times New Roman', Times, serif; font-size: 18px;"">You selected $1.00</p>

        <p style=""font-family: 'Times New Roman', Times, serif; font-size: 18px;""><br>Your partner is deciding how much to return.</p></div></div>
    </div>",,,,,,,,,,,,,,,,,,,,
,,,,,"html-keyboard-response",27,840500,"0.0-8.0-2.3","67cdc3c7ea7918dcd6f2ab2d",,,,,,,"<div class=""gameHeader"">
        </div>
    <div class=""offerCard"" style=""height: auto; min-height: 90vh; overflow-y: auto; display: flex; justify-content: center;"">
        <div class=""bidOffer"" style=""overflow-y: auto; display: flex; flex-direction: column; justify-content: center;""><div style=""display: flex; flex-direction: column; align-items: center; justify-content: center; width: 100%;"">
            <div class=""player2Card"" style=""margin-bottom: 20px;"">
                <p class=""player2Image""><img src=src/images/red_guy.png width=""150""></p>
                <div class=""player2Name""><p>Partner</p></div>
            </div>

            <div style=""background-color: #f8f9fa; border-radius: 10px; padding: 15px; text-align: center; max-width: 400px;"">
                <p style=""font-family: 'Times New Roman', Times, serif; font-size: 18px; margin: 0;"">Partner received <strong>$4.00</strong> and returned <strong>$1.60</strong> to you.</p>
            </div>
        </div></div>
    </div>",,,,,,,,,,,,,,,,,,,,
,,,,,"html-keyboard-response",28,861098,"0.0-9.0","67cdc3c7ea7918dcd6f2ab2d",,,20596," ",,,"<div class=""gameHeader"">
        </div>
    <div class=""offerCard"">
        <div class=""bidOffer"">
            <div class=""instructionsText"">
        <div class =""wrapTextBox"">
            <p><strong>Practice Complete!</strong></p>
            <p>You have finished the practice phase.</p>
            <p>The real experiment will now begin. Your decisions will now count toward your final payment.</p>
            <p>During the practice phase, four participants (<strong>KeJo10</strong>, <strong>BaSa02</strong>, <strong>GePl10</strong>, <strong>ClMa03</strong>) have been randomly matched as your partners for this experiment.</p>
            <p>Press the spacebar to start the experiment.</p>
        </div>
        </div>
        </div>
    </div>",,,,,,,,,,,,,,,,,,,,
,,,,,"html-keyboard-response",29,862608,"0.0-10.0","67cdc3c7ea7918dcd6f2ab2d",,,,,,,"<div class=""gameHeader"">
        </div>
    <div class=""offerCard"">
        <div class=""bidOffer"">
            <div class=""instructionsText"">
        <div class =""wrapTextBox"">
            <p style=""font-family: 'Times New Roman', Times, serif; font-size: 18px;""><strong>Preparing main experiment...</strong></p>
        </div>
        </div>
        </div>
    </div>",,,,,,,,,,,,,,,,,,,,
,,,,,"html-keyboard-response",30,863265,"0.0-11.0-0.0-0.0-0.0","67cdc3c7ea7918dcd6f2ab2d",,,656,"f",,,"<div class=""gameHeader"">
        </div>
    <div class=""offerCard"" style=""height: auto; min-height: 90vh; overflow-y: auto; display: flex; justify-content: center;"">
        <div class=""bidOffer"" style=""overflow-y: auto; display: flex; flex-direction: column; justify-content: center;"">
        <div class=""offers"">
        <div class=""textPrompt""><p style=""font-family: 'Times New Roman', Times, serif; font-size: 18px;"">How much money do you want
        <br>to give KeJo10?</p></div>
            <div class =""trustElements"">
            <div class=""player1Card""><p class=""player1Image""><img src=""src/images/gray_guy.png"" width=""150""></p>
                <div class=""player1Name""><p style=""font-family: 'Times New Roman', Times, serif; font-size: 18px;"">CHTH08</p></div>
            </div>

                <div class=""investmentCard"">
                    <div id=""leftBlock"" class=""leftBlock"">
                        <p style=""font-family: 'Times New Roman', Times, serif; font-size: 18px;"">$1</p>
                        <p style=""font-family: 'Times New Roman', Times, serif; font-size: 18px; margin-top: 5px; color: #666;"">Press ""F"" key</p>
                    </div>
                    <div id=""rightBlock"" class=""rightBlock"">
                        <p style=""font-family: 'Times New Roman', Times, serif; font-size: 18px;"">$10</p>
                        <p style=""font-family: 'Times New Roman', Times, serif; font-size: 18px; margin-top: 5px; color: #666;"">Press ""J"" key</p>
                    </div>
                </div>

            <div class=""player2Card""><p class=""player2Image""><img src=src/images/blue_guy.png width=""150""></p>
                <div class=""player2Name""><p>KeJo10</p></div>
            </div>
            </div>
        </div>
        </div>
    </div>","make_choice",1,0,1,1,1.9,0.4935388582711144,-0.006245799144619772,,,,,,,,,,,,
,,,,,"html-keyboard-response",31,865391,"0.0-11.0-0.0-0.0-1.0","67cdc3c7ea7918dcd6f2ab2d",,,,,,,"<div class=""gameHeader"">
        </div>
    <div class=""offerCard"" style=""height: auto; min-height: 90vh; overflow-y: auto; display: flex; justify-content: center;"">
        <div class=""bidOffer"" style=""overflow-y: auto; display: flex; flex-direction: column; justify-content: center;""><div class=""outcomeText""><p style=""font-family: 'Times New Roman', Times, serif; font-size: 18px;"">You selected $1.00</p>

        <p style=""font-family: 'Times New Roman', Times, serif; font-size: 18px;""><br>Your partner is deciding how much to return.</p></div></div>
    </div>",,,,,,,,,,,,,,,,,,,,
,,,,,"html-keyboard-response",32,869393,"0.0-11.0-0.0-0.0-2.0","67cdc3c7ea7918dcd6f2ab2d",,,,,,,"<div class=""gameHeader"">
        </div>
    <div class=""offerCard"" style=""height: auto; min-height: 90vh; overflow-y: auto; display: flex; justify-content: center;"">
        <div class=""bidOffer"" style=""overflow-y: auto; display: flex; flex-direction: column; justify-content: center;""><div style=""display: flex; flex-direction: column; align-items: center; justify-content: center; width: 100%;"">
            <div class=""player2Card"" style=""margin-bottom: 20px;"">
                <p class=""player2Image""><img src=src/images/blue_guy.png width=""150""></p>
                <div class=""player2Name""><p>KeJo10</p></div>
            </div>

            <div style=""background-color: #f8f9fa; border-radius: 10px; padding: 15px; text-align: center; max-width: 400px;"">
                <p style=""font-family: 'Times New Roman', Times, serif; font-size: 18px; margin: 0;"">KeJo10 received <strong>$4.00</strong> and returned <strong>$1.90</strong> to you.</p>
            </div>
        </div></div>
    </div>",,,,,,,,,,,,,,,,,,,,
,,,,,"html-keyboard-response",33,872124,"0.0-11.0-0.0-0.0-3.0-0.0","67cdc3c7ea7918dcd6f2ab2d",,,,,,,"<div class=""gameHeader"">
        </div>
    <div class=""offerCard"" style=""height: auto; min-height: 90vh; overflow-y: auto; display: flex; justify-content: center;"">
        <div class=""bidOffer"" style=""overflow-y: auto; display: flex; flex-direction: column; justify-content: center;""><div class=""outcomeText""><p style=""font-family: 'Times New Roman', Times, serif; font-size: 18px;"">The next round will begin momentarily.</p>

    <p style=""font-family: 'Times New Roman', Times, serif; font-size: 18px;"">Please wait.</p></div></div>
    </div>",,,,,,,,,,,,,,,,,,,,
,,,,,"html-keyboard-response",34,872574,"0.0-11.0-0.0-1.0-0.0","67cdc3c7ea7918dcd6f2ab2d",,,449,"j",,,"<div class=""gameHeader"">
        </div>
    <div class=""offerCard"" style=""height: auto; min-height: 90vh; overflow-y: auto; display: flex; justify-content: center;"">
        <div class=""bidOffer"" style=""overflow-y: auto; display: flex; flex-direction: column; justify-content: center;"">
        <div class=""offers"">
        <div class=""textPrompt""><p style=""font-family: 'Times New Roman', Times, serif; font-size: 18px;"">How much money do you want
        <br>to give BaSa02?</p></div>
            <div class =""trustElements"">
            <div class=""player1Card""><p class=""player1Image""><img src=""src/images/gray_guy.png"" width=""150""></p>
                <div class=""player1Name""><p style=""font-family: 'Times New Roman', Times, serif; font-size: 18px;"">CHTH08</p></div>
            </div>

                <div class=""investmentCard"">
                    <div id=""leftBlock"" class=""leftBlock"">
                        <p style=""font-family: 'Times New Roman', Times, serif; font-size: 18px;"">$1</p>
                        <p style=""font-family: 'Times New Roman', Times, serif; font-size: 18px; margin-top: 5px; color: #666;"">Press ""F"" key</p>
                    </div>
                    <div id=""rightBlock"" class=""rightBlock"">
                        <p style=""font-family: 'Times New Roman', Times, serif; font-size: 18px;"">$10</p>
                        <p style=""font-family: 'Times New Roman', Times, serif; font-size: 18px; margin-top: 5px; color: #666;"">Press ""J"" key</p>
                    </div>
                </div>

            <div class=""player2Card""><p class=""player2Image""><img src=src/images/yellow_guy.png width=""150""></p>
                <div class=""player2Name""><p>BaSa02</p></div>
            </div>
            </div>
        </div>
        </div>
    </div>","make_choice",10,1,2,1,19.8,0.4828702643090991,0.01331905059370273,,,,,,,,,,,,
,,,,,"html-keyboard-response",35,876139,"0.0-11.0-0.0-1.0-1.0","67cdc3c7ea7918dcd6f2ab2d",,,,,,,"<div class=""gameHeader"">
        </div>
    <div class=""offerCard"" style=""height: auto; min-height: 90vh; overflow-y: auto; display: flex; justify-content: center;"">
        <div class=""bidOffer"" style=""overflow-y: auto; display: flex; flex-direction: column; justify-content: center;""><div class=""outcomeText""><p style=""font-family: 'Times New Roman', Times, serif; font-size: 18px;"">You selected $10.00</p>

        <p style=""font-family: 'Times New Roman', Times, serif; font-size: 18px;""><br>Your partner is deciding how much to return.</p></div></div>
    </div>",,,,,,,,,,,,,,,,,,,,
,,,,,"html-keyboard-response",36,880170,"0.0-11.0-0.0-1.0-2.0","67cdc3c7ea7918dcd6f2ab2d",,,,,,,"<div class=""gameHeader"">
        </div>
    <div class=""offerCard"" style=""height: auto; min-height: 90vh; overflow-y: auto; display: flex; justify-content: center;"">
        <div class=""bidOffer"" style=""overflow-y: auto; display: flex; flex-direction: column; justify-content: center;""><div style=""display: flex; flex-direction: column; align-items: center; justify-content: center; width: 100%;"">
            <div class=""player2Card"" style=""margin-bottom: 20px;"">
                <p class=""player2Image""><img src=src/images/yellow_guy.png width=""150""></p>
                <div class=""player2Name""><p>BaSa02</p></div>
            </div>

            <div style=""background-color: #f8f9fa; border-radius: 10px; padding: 15px; text-align: center; max-width: 400px;"">
                <p style=""font-family: 'Times New Roman', Times, serif; font-size: 18px; margin: 0;"">BaSa02 received <strong>$40.00</strong> and returned <strong>$19.80</strong> to you.</p>
            </div>
        </div></div>
    </div>",,,,,,,,,,,,,,,,,,,,
,,,,,"html-keyboard-response",37,883365,"0.0-11.0-0.0-1.0-3.0-0.0","67cdc3c7ea7918dcd6f2ab2d",,,,,,,"<div class=""gameHeader"">
        </div>
    <div class=""offerCard"" style=""height: auto; min-height: 90vh; overflow-y: auto; display: flex; justify-content: center;"">
        <div class=""bidOffer"" style=""overflow-y: auto; display: flex; flex-direction: column; justify-content: center;""><div class=""outcomeText""><p style=""font-family: 'Times New Roman', Times, serif; font-size: 18px;"">The next round will begin momentarily.</p>

    <p style=""font-family: 'Times New Roman', Times, serif; font-size: 18px;"">Please wait.</p></div></div>
    </div>",,,,,,,,,,,,,,,,,,,,
,,,,,"html-keyboard-response",38,884072,"0.0-11.0-0.0-2.0-0.0","67cdc3c7ea7918dcd6f2ab2d",,,705,"f",,,"<div class=""gameHeader"">
        </div>
    <div class=""offerCard"" style=""height: auto; min-height: 90vh; overflow-y: auto; display: flex; justify-content: center;"">
        <div class=""bidOffer"" style=""overflow-y: auto; display: flex; flex-direction: column; justify-content: center;"">
        <div class=""offers"">
        <div class=""textPrompt""><p style=""font-family: 'Times New Roman', Times, serif; font-size: 18px;"">How much money do you want
        <br>to give GePl10?</p></div>
            <div class =""trustElements"">
            <div class=""player1Card""><p class=""player1Image""><img src=""src/images/gray_guy.png"" width=""150""></p>
                <div class=""player1Name""><p style=""font-family: 'Times New Roman', Times, serif; font-size: 18px;"">CHTH08</p></div>
            </div>

                <div class=""investmentCard"">
                    <div id=""leftBlock"" class=""leftBlock"">
                        <p style=""font-family: 'Times New Roman', Times, serif; font-size: 18px;"">$1</p>
                        <p style=""font-family: 'Times New Roman', Times, serif; font-size: 18px; margin-top: 5px; color: #666;"">Press ""F"" key</p>
                    </div>
                    <div id=""rightBlock"" class=""rightBlock"">
                        <p style=""font-family: 'Times New Roman', Times, serif; font-size: 18px;"">$10</p>
                        <p style=""font-family: 'Times New Roman', Times, serif; font-size: 18px; margin-top: 5px; color: #666;"">Press ""J"" key</p>
                    </div>
                </div>

            <div class=""player2Card""><p class=""player2Image""><img src=src/images/green_guy.png width=""150""></p>
                <div class=""player2Name""><p>GePl10</p></div>
            </div>
            </div>
        </div>
        </div>
    </div>","make_choice",1,2,3,1,1,0.2547605777369546,0.005869736526339279,,,,,,,,,,,,
,,,,,"html-keyboard-response",39,886373,"0.0-11.0-0.0-2.0-1.0","67cdc3c7ea7918dcd6f2ab2d",,,,,,,"<div class=""gameHeader"">
        </div>
    <div class=""offerCard"" style=""height: auto; min-height: 90vh; overflow-y: auto; display: flex; justify-content: center;"">
        <div class=""bidOffer"" style=""overflow-y: auto; display: flex; flex-direction: column; justify-content: center;""><div class=""outcomeText""><p style=""font-family: 'Times New Roman', Times, serif; font-size: 18px;"">You selected $1.00</p>

        <p style=""font-family: 'Times New Roman', Times, serif; font-size: 18px;""><br>Your partner is deciding how much to return.</p></div></div>
    </div>",,,,,,,,,,,,,,,,,,,,
,,,,,"html-keyboard-response",40,890390,"0.0-11.0-0.0-2.0-2.0","67cdc3c7ea7918dcd6f2ab2d",,,,,,,"<div class=""gameHeader"">
        </div>
    <div class=""offerCard"" style=""height: auto; min-height: 90vh; overflow-y: auto; display: flex; justify-content: center;"">
        <div class=""bidOffer"" style=""overflow-y: auto; display: flex; flex-direction: column; justify-content: center;""><div style=""display: flex; flex-direction: column; align-items: center; justify-content: center; width: 100%;"">
            <div class=""player2Card"" style=""margin-bottom: 20px;"">
                <p class=""player2Image""><img src=src/images/green_guy.png width=""150""></p>
                <div class=""player2Name""><p>GePl10</p></div>
            </div>

            <div style=""background-color: #f8f9fa; border-radius: 10px; padding: 15px; text-align: center; max-width: 400px;"">
                <p style=""font-family: 'Times New Roman', Times, serif; font-size: 18px; margin: 0;"">GePl10 received <strong>$4.00</strong> and returned <strong>$1.00</strong> to you.</p>
            </div>
        </div></div>
    </div>",,,,,,,,,,,,,,,,,,,,
,,,,,"html-keyboard-response",41,892793,"0.0-11.0-0.0-2.0-3.0-0.0","67cdc3c7ea7918dcd6f2ab2d",,,,,,,"<div class=""gameHeader"">
        </div>
    <div class=""offerCard"" style=""height: auto; min-height: 90vh; overflow-y: auto; display: flex; justify-content: center;"">
        <div class=""bidOffer"" style=""overflow-y: auto; display: flex; flex-direction: column; justify-content: center;""><div class=""outcomeText""><p style=""font-family: 'Times New Roman', Times, serif; font-size: 18px;"">The next round will begin momentarily.</p>

    <p style=""font-family: 'Times New Roman', Times, serif; font-size: 18px;"">Please wait.</p></div></div>
    </div>",,,,,,,,,,,,,,,,,,,,
,,,,,"html-keyboard-response",42,893211,"0.0-11.0-0.0-3.0-0.0","67cdc3c7ea7918dcd6f2ab2d",,,417,"j",,,"<div class=""gameHeader"">
        </div>
    <div class=""offerCard"" style=""height: auto; min-height: 90vh; overflow-y: auto; display: flex; justify-content: center;"">
        <div class=""bidOffer"" style=""overflow-y: auto; display: flex; flex-direction: column; justify-content: center;"">
        <div class=""offers"">
        <div class=""textPrompt""><p style=""font-family: 'Times New Roman', Times, serif; font-size: 18px;"">How much money do you want
        <br>to give ClMa03?</p></div>
            <div class =""trustElements"">
            <div class=""player1Card""><p class=""player1Image""><img src=""src/images/gray_guy.png"" width=""150""></p>
                <div class=""player1Name""><p style=""font-family: 'Times New Roman', Times, serif; font-size: 18px;"">CHTH08</p></div>
            </div>

                <div class=""investmentCard"">
                    <div id=""leftBlock"" class=""leftBlock"">
                        <p style=""font-family: 'Times New Roman', Times, serif; font-size: 18px;"">$1</p>
                        <p style=""font-family: 'Times New Roman', Times, serif; font-size: 18px; margin-top: 5px; color: #666;"">Press ""F"" key</p>
                    </div>
                    <div id=""rightBlock"" class=""rightBlock"">
                        <p style=""font-family: 'Times New Roman', Times, serif; font-size: 18px;"">$10</p>
                        <p style=""font-family: 'Times New Roman', Times, serif; font-size: 18px; margin-top: 5px; color: #666;"">Press ""J"" key</p>
                    </div>
                </div>

            <div class=""player2Card""><p class=""player2Image""><img src=src/images/red_guy.png width=""150""></p>
                <div class=""player2Name""><p>ClMa03</p></div>
            </div>
            </div>
        </div>
        </div>
    </div>","make_choice",10,3,4,2,10,0.2594561523439392,-0.009356690063988952,,,,,,,,,,,,
,,,,,"html-keyboard-response",43,896560,"0.0-11.0-0.0-3.0-1.0","67cdc3c7ea7918dcd6f2ab2d",,,,,,,"<div class=""gameHeader"">
        </div>
    <div class=""offerCard"" style=""height: auto; min-height: 90vh; overflow-y: auto; display: flex; justify-content: center;"">
        <div class=""bidOffer"" style=""overflow-y: auto; display: flex; flex-direction: column; justify-content: center;""><div class=""outcomeText""><p style=""font-family: 'Times New Roman', Times, serif; font-size: 18px;"">You selected $10.00</p>

        <p style=""font-family: 'Times New Roman', Times, serif; font-size: 18px;""><br>Your partner is deciding how much to return.</p></div></div>
    </div>",,,,,,,,,,,,,,,,,,,,
,,,,,"html-keyboard-response",44,900562,"0.0-11.0-0.0-3.0-2.0","67cdc3c7ea7918dcd6f2ab2d",,,,,,,"<div class=""gameHeader"">
        </div>
    <div class=""offerCard"" style=""height: auto; min-height: 90vh; overflow-y: auto; display: flex; justify-content: center;"">
        <div class=""bidOffer"" style=""overflow-y: auto; display: flex; flex-direction: column; justify-content: center;""><div style=""display: flex; flex-direction: column; align-items: center; justify-content: center; width: 100%;"">
            <div class=""player2Card"" style=""margin-bottom: 20px;"">
                <p class=""player2Image""><img src=src/images/red_guy.png width=""150""></p>
                <div class=""player2Name""><p>ClMa03</p></div>
            </div>

            <div style=""background-color: #f8f9fa; border-radius: 10px; padding: 15px; text-align: center; max-width: 400px;"">
                <p style=""font-family: 'Times New Roman', Times, serif; font-size: 18px; margin: 0;"">ClMa03 received <strong>$40.00</strong> and returned <strong>$10.00</strong> to you.</p>
            </div>
        </div></div>
    </div>",,,,,,,,,,,,,,,,,,,,
,,,,,"html-keyboard-response",45,904563,"0.0-11.0-0.0-3.0-3.0-0.0","67cdc3c7ea7918dcd6f2ab2d",,,,,,,"<div class=""gameHeader"">
        </div>
    <div class=""offerCard"" style=""height: auto; min-height: 90vh; overflow-y: auto; display: flex; justify-content: center;"">
        <div class=""bidOffer"" style=""overflow-y: auto; display: flex; flex-direction: column; justify-content: center;""><div class=""outcomeText""><p style=""font-family: 'Times New Roman', Times, serif; font-size: 18px;"">The next round will begin momentarily.</p>

    <p style=""font-family: 'Times New Roman', Times, serif; font-size: 18px;"">Please wait.</p></div></div>
    </div>",,,,,,,,,,,,,,,,,,,,
,,,,,"html-keyboard-response",46,905160,"0.0-11.0-0.0-4.0-0.0","67cdc3c7ea7918dcd6f2ab2d",,,596,"j",,,"<div class=""gameHeader"">
        </div>
    <div class=""offerCard"" style=""height: auto; min-height: 90vh; overflow-y: auto; display: flex; justify-content: center;"">
        <div class=""bidOffer"" style=""overflow-y: auto; display: flex; flex-direction: column; justify-content: center;"">
        <div class=""offers"">
        <div class=""textPrompt""><p style=""font-family: 'Times New Roman', Times, serif; font-size: 18px;"">How much money do you want
        <br>to give GePl10?</p></div>
            <div class =""trustElements"">
            <div class=""player1Card""><p class=""player1Image""><img src=""src/images/gray_guy.png"" width=""150""></p>
                <div class=""player1Name""><p style=""font-family: 'Times New Roman', Times, serif; font-size: 18px;"">CHTH08</p></div>
            </div>

                <div class=""investmentCard"">
                    <div id=""leftBlock"" class=""leftBlock"">
                        <p style=""font-family: 'Times New Roman', Times, serif; font-size: 18px;"">$1</p>
                        <p style=""font-family: 'Times New Roman', Times, serif; font-size: 18px; margin-top: 5px; color: #666;"">Press ""F"" key</p>
                    </div>
                    <div id=""rightBlock"" class=""rightBlock"">
                        <p style=""font-family: 'Times New Roman', Times, serif; font-size: 18px;"">$10</p>
                        <p style=""font-family: 'Times New Roman', Times, serif; font-size: 18px; margin-top: 5px; color: #666;"">Press ""J"" key</p>
                    </div>
                </div>

            <div class=""player2Card""><p class=""player2Image""><img src=src/images/green_guy.png width=""150""></p>
                <div class=""player2Name""><p>GePl10</p></div>
            </div>
            </div>
        </div>
        </div>
    </div>","make_choice",10,2,5,2,10.2,0.24467925225108478,0.009997710946300446,,,,,,,,,,,,
,,,,,"html-keyboard-response",47,908498,"0.0-11.0-0.0-4.0-1.0","67cdc3c7ea7918dcd6f2ab2d",,,,,,,"<div class=""gameHeader"">
        </div>
    <div class=""offerCard"" style=""height: auto; min-height: 90vh; overflow-y: auto; display: flex; justify-content: center;"">
        <div class=""bidOffer"" style=""overflow-y: auto; display: flex; flex-direction: column; justify-content: center;""><div class=""outcomeText""><p style=""font-family: 'Times New Roman', Times, serif; font-size: 18px;"">You selected $10.00</p>

        <p style=""font-family: 'Times New Roman', Times, serif; font-size: 18px;""><br>Your partner is deciding how much to return.</p></div></div>
    </div>",,,,,,,,,,,,,,,,,,,,
,,,,,"html-keyboard-response",48,912514,"0.0-11.0-0.0-4.0-2.0","67cdc3c7ea7918dcd6f2ab2d",,,,,,,"<div class=""gameHeader"">
        </div>
    <div class=""offerCard"" style=""height: auto; min-height: 90vh; overflow-y: auto; display: flex; justify-content: center;"">
        <div class=""bidOffer"" style=""overflow-y: auto; display: flex; flex-direction: column; justify-content: center;""><div style=""display: flex; flex-direction: column; align-items: center; justify-content: center; width: 100%;"">
            <div class=""player2Card"" style=""margin-bottom: 20px;"">
                <p class=""player2Image""><img src=src/images/green_guy.png width=""150""></p>
                <div class=""player2Name""><p>GePl10</p></div>
            </div>

            <div style=""background-color: #f8f9fa; border-radius: 10px; padding: 15px; text-align: center; max-width: 400px;"">
                <p style=""font-family: 'Times New Roman', Times, serif; font-size: 18px; margin: 0;"">GePl10 received <strong>$40.00</strong> and returned <strong>$10.20</strong> to you.</p>
            </div>
        </div></div>
    </div>",,,,,,,,,,,,,,,,,,,,
,,,,,"html-keyboard-response",49,916247,"0.0-11.0-0.0-4.0-3.0-0.0","67cdc3c7ea7918dcd6f2ab2d",,,,,,,"<div class=""gameHeader"">
        </div>
    <div class=""offerCard"" style=""height: auto; min-height: 90vh; overflow-y: auto; display: flex; justify-content: center;"">
        <div class=""bidOffer"" style=""overflow-y: auto; display: flex; flex-direction: column; justify-content: center;""><div class=""outcomeText""><p style=""font-family: 'Times New Roman', Times, serif; font-size: 18px;"">The next round will begin momentarily.</p>

    <p style=""font-family: 'Times New Roman', Times, serif; font-size: 18px;"">Please wait.</p></div></div>
    </div>",,,,,,,,,,,,,,,,,,,,
,,,,,"html-keyboard-response",50,916868,"0.0-11.0-0.0-5.0-0.0","67cdc3c7ea7918dcd6f2ab2d",,,619,"f",,,"<div class=""gameHeader"">
        </div>
    <div class=""offerCard"" style=""height: auto; min-height: 90vh; overflow-y: auto; display: flex; justify-content: center;"">
        <div class=""bidOffer"" style=""overflow-y: auto; display: flex; flex-direction: column; justify-content: center;"">
        <div class=""offers"">
        <div class=""textPrompt""><p style=""font-family: 'Times New Roman', Times, serif; font-size: 18px;"">How much money do you want
        <br>to give KeJo10?</p></div>
            <div class =""trustElements"">
            <div class=""player1Card""><p class=""player1Image""><img src=""src/images/gray_guy.png"" width=""150""></p>
                <div class=""player1Name""><p style=""font-family: 'Times New Roman', Times, serif; font-size: 18px;"">CHTH08</p></div>
            </div>

                <div class=""investmentCard"">
                    <div id=""leftBlock"" class=""leftBlock"">
                        <p style=""font-family: 'Times New Roman', Times, serif; font-size: 18px;"">$1</p>
                        <p style=""font-family: 'Times New Roman', Times, serif; font-size: 18px; margin-top: 5px; color: #666;"">Press ""F"" key</p>
                    </div>
                    <div id=""rightBlock"" class=""rightBlock"">
                        <p style=""font-family: 'Times New Roman', Times, serif; font-size: 18px;"">$10</p>
                        <p style=""font-family: 'Times New Roman', Times, serif; font-size: 18px; margin-top: 5px; color: #666;"">Press ""J"" key</p>
                    </div>
                </div>

            <div class=""player2Card""><p class=""player2Image""><img src=src/images/blue_guy.png width=""150""></p>
                <div class=""player2Name""><p>KeJo10</p></div>
            </div>
            </div>
        </div>
        </div>
    </div>","make_choice",1,0,6,2,2,0.5,-0.0017537414580079383,,,,,,,,,,,,
,,,,,"html-keyboard-response",51,919202,"0.0-11.0-0.0-5.0-1.0","67cdc3c7ea7918dcd6f2ab2d",,,,,,,"<div class=""gameHeader"">
        </div>
    <div class=""offerCard"" style=""height: auto; min-height: 90vh; overflow-y: auto; display: flex; justify-content: center;"">
        <div class=""bidOffer"" style=""overflow-y: auto; display: flex; flex-direction: column; justify-content: center;""><div class=""outcomeText""><p style=""font-family: 'Times New Roman', Times, serif; font-size: 18px;"">You selected $1.00</p>

        <p style=""font-family: 'Times New Roman', Times, serif; font-size: 18px;""><br>Your partner is deciding how much to return.</p></div></div>
    </div>",,,,,,,,,,,,,,,,,,,,
,,,,,"html-keyboard-response",52,923217,"0.0-11.0-0.0-5.0-2.0","67cdc3c7ea7918dcd6f2ab2d",,,,,,,"<div class=""gameHeader"">
        </div>
    <div class=""offerCard"" style=""height: auto; min-height: 90vh; overflow-y: auto; display: flex; justify-content: center;"">
        <div class=""bidOffer"" style=""overflow-y: auto; display: flex; flex-direction: column; justify-content: center;""><div style=""display: flex; flex-direction: column; align-items: center; justify-content: center; width: 100%;"">
            <div class=""player2Card"" style=""margin-bottom: 20px;"">
                <p class=""player2Image""><img src=src/images/blue_guy.png width=""150""></p>
                <div class=""player2Name""><p>KeJo10</p></div>
            </div>

            <div style=""background-color: #f8f9fa; border-radius: 10px; padding: 15px; text-align: center; max-width: 400px;"">
                <p style=""font-family: 'Times New Roman', Times, serif; font-size: 18px; margin: 0;"">KeJo10 received <strong>$4.00</strong> and returned <strong>$2.00</strong> to you.</p>
            </div>
        </div></div>
    </div>",,,,,,,,,,,,,,,,,,,,
,,,,,"html-keyboard-response",53,925841,"0.0-11.0-0.0-5.0-3.0-0.0","67cdc3c7ea7918dcd6f2ab2d",,,,,,,"<div class=""gameHeader"">
        </div>
    <div class=""offerCard"" style=""height: auto; min-height: 90vh; overflow-y: auto; display: flex; justify-content: center;"">
        <div class=""bidOffer"" style=""overflow-y: auto; display: flex; flex-direction: column; justify-content: center;""><div class=""outcomeText""><p style=""font-family: 'Times New Roman', Times, serif; font-size: 18px;"">The next round will begin momentarily.</p>

    <p style=""font-family: 'Times New Roman', Times, serif; font-size: 18px;"">Please wait.</p></div></div>
    </div>",,,,,,,,,,,,,,,,,,,,
,,,,,"html-keyboard-response",54,926974,"0.0-11.0-0.0-6.0-0.0","67cdc3c7ea7918dcd6f2ab2d",,,1131,"f",,,"<div class=""gameHeader"">
        </div>
    <div class=""offerCard"" style=""height: auto; min-height: 90vh; overflow-y: auto; display: flex; justify-content: center;"">
        <div class=""bidOffer"" style=""overflow-y: auto; display: flex; flex-direction: column; justify-content: center;"">
        <div class=""offers"">
        <div class=""textPrompt""><p style=""font-family: 'Times New Roman', Times, serif; font-size: 18px;"">How much money do you want
        <br>to give ClMa03?</p></div>
            <div class =""trustElements"">
            <div class=""player1Card""><p class=""player1Image""><img src=""src/images/gray_guy.png"" width=""150""></p>
                <div class=""player1Name""><p style=""font-family: 'Times New Roman', Times, serif; font-size: 18px;"">CHTH08</p></div>
            </div>

                <div class=""investmentCard"">
                    <div id=""leftBlock"" class=""leftBlock"">
                        <p style=""font-family: 'Times New Roman', Times, serif; font-size: 18px;"">$1</p>
                        <p style=""font-family: 'Times New Roman', Times, serif; font-size: 18px; margin-top: 5px; color: #666;"">Press ""F"" key</p>
                    </div>
                    <div id=""rightBlock"" class=""rightBlock"">
                        <p style=""font-family: 'Times New Roman', Times, serif; font-size: 18px;"">$10</p>
                        <p style=""font-family: 'Times New Roman', Times, serif; font-size: 18px; margin-top: 5px; color: #666;"">Press ""J"" key</p>
                    </div>
                </div>

            <div class=""player2Card""><p class=""player2Image""><img src=src/images/red_guy.png width=""150""></p>
                <div class=""player2Name""><p>ClMa03</p></div>
            </div>
            </div>
        </div>
        </div>
    </div>","make_choice",1,3,7,3,1,0.24606149969766758,0.013120560927490473,,,,,,,,,,,,
,,,,,"html-keyboard-response",55,929515,"0.0-11.0-0.0-6.0-1.0","67cdc3c7ea7918dcd6f2ab2d",,,,,,,"<div class=""gameHeader"">
        </div>
    <div class=""offerCard"" style=""height: auto; min-height: 90vh; overflow-y: auto; display: flex; justify-content: center;"">
        <div class=""bidOffer"" style=""overflow-y: auto; display: flex; flex-direction: column; justify-content: center;""><div class=""outcomeText""><p style=""font-family: 'Times New Roman', Times, serif; font-size: 18px;"">You selected $1.00</p>

        <p style=""font-family: 'Times New Roman', Times, serif; font-size: 18px;""><br>Your partner is deciding how much to return.</p></div></div>
    </div>",,,,,,,,,,,,,,,,,,,,
,,,,,"html-keyboard-response",56,933530,"0.0-11.0-0.0-6.0-2.0","67cdc3c7ea7918dcd6f2ab2d",,,,,,,"<div class=""gameHeader"">
        </div>
    <div class=""offerCard"" style=""height: auto; min-height: 90vh; overflow-y: auto; display: flex; justify-content: center;"">
        <div class=""bidOffer"" style=""overflow-y: auto; display: flex; flex-direction: column; justify-content: center;""><div style=""display: flex; flex-direction: column; align-items: center; justify-content: center; width: 100%;"">
            <div class=""player2Card"" style=""margin-bottom: 20px;"">
                <p class=""player2Image""><img src=src/images/red_guy.png width=""150""></p>
                <div class=""player2Name""><p>ClMa03</p></div>
            </div>

            <div style=""background-color: #f8f9fa; border-radius: 10px; padding: 15px; text-align: center; max-width: 400px;"">
                <p style=""font-family: 'Times New Roman', Times, serif; font-size: 18px; margin: 0;"">ClMa03 received <strong>$4.00</strong> and returned <strong>$1.00</strong> to you.</p>
            </div>
        </div></div>
    </div>",,,,,,,,,,,,,,,,,,,,
,,,,,"html-keyboard-response",57,935610,"0.0-11.0-0.0-6.0-3.0-0.0","67cdc3c7ea7918dcd6f2ab2d",,,,,,,"<div class=""gameHeader"">
        </div>
    <div class=""offerCard"" style=""height: auto; min-height: 90vh; overflow-y: auto; display: flex; justify-content: center;"">
        <div class=""bidOffer"" style=""overflow-y: auto; display: flex; flex-direction: column; justify-content: center;""><div class=""outcomeText""><p style=""font-family: 'Times New Roman', Times, serif; font-size: 18px;"">The next round will begin momentarily.</p>

    <p style=""font-family: 'Times New Roman', Times, serif; font-size: 18px;"">Please wait.</p></div></div>
    </div>",,,,,,,,,,,,,,,,,,,,
,,,,,"html-keyboard-response",58,936318,"0.0-11.0-0.0-7.0-0.0","67cdc3c7ea7918dcd6f2ab2d",,,707,"j",,,"<div class=""gameHeader"">
        </div>
    <div class=""offerCard"" style=""height: auto; min-height: 90vh; overflow-y: auto; display: flex; justify-content: center;"">
        <div class=""bidOffer"" style=""overflow-y: auto; display: flex; flex-direction: column; justify-content: center;"">
        <div class=""offers"">
        <div class=""textPrompt""><p style=""font-family: 'Times New Roman', Times, serif; font-size: 18px;"">How much money do you want
        <br>to give BaSa02?</p></div>
            <div class =""trustElements"">
            <div class=""player1Card""><p class=""player1Image""><img src=""src/images/gray_guy.png"" width=""150""></p>
                <div class=""player1Name""><p style=""font-family: 'Times New Roman', Times, serif; font-size: 18px;"">CHTH08</p></div>
            </div>

                <div class=""investmentCard"">
                    <div id=""leftBlock"" class=""leftBlock"">
                        <p style=""font-family: 'Times New Roman', Times, serif; font-size: 18px;"">$1</p>
                        <p style=""font-family: 'Times New Roman', Times, serif; font-size: 18px; margin-top: 5px; color: #666;"">Press ""F"" key</p>
                    </div>
                    <div id=""rightBlock"" class=""rightBlock"">
                        <p style=""font-family: 'Times New Roman', Times, serif; font-size: 18px;"">$10</p>
                        <p style=""font-family: 'Times New Roman', Times, serif; font-size: 18px; margin-top: 5px; color: #666;"">Press ""J"" key</p>
                    </div>
                </div>

            <div class=""player2Card""><p class=""player2Image""><img src=src/images/yellow_guy.png width=""150""></p>
                <div class=""player2Name""><p>BaSa02</p></div>
            </div>
            </div>
        </div>
        </div>
    </div>","make_choice",10,1,8,3,19.9,0.4995659248659423,-0.0014944059612755547,,,,,,,,,,,,
,,,,,"html-keyboard-response",59,938874,"0.0-11.0-0.0-7.0-1.0","67cdc3c7ea7918dcd6f2ab2d",,,,,,,"<div class=""gameHeader"">
        </div>
    <div class=""offerCard"" style=""height: auto; min-height: 90vh; overflow-y: auto; display: flex; justify-content: center;"">
        <div class=""bidOffer"" style=""overflow-y: auto; display: flex; flex-direction: column; justify-content: center;""><div class=""outcomeText""><p style=""font-family: 'Times New Roman', Times, serif; font-size: 18px;"">You selected $10.00</p>

        <p style=""font-family: 'Times New Roman', Times, serif; font-size: 18px;""><br>Your partner is deciding how much to return.</p></div></div>
    </div>",,,,,,,,,,,,,,,,,,,,
,,,,,"html-keyboard-response",60,942890,"0.0-11.0-0.0-7.0-2.0","67cdc3c7ea7918dcd6f2ab2d",,,,,,,"<div class=""gameHeader"">
        </div>
    <div class=""offerCard"" style=""height: auto; min-height: 90vh; overflow-y: auto; display: flex; justify-content: center;"">
        <div class=""bidOffer"" style=""overflow-y: auto; display: flex; flex-direction: column; justify-content: center;""><div style=""display: flex; flex-direction: column; align-items: center; justify-content: center; width: 100%;"">
            <div class=""player2Card"" style=""margin-bottom: 20px;"">
                <p class=""player2Image""><img src=src/images/yellow_guy.png width=""150""></p>
                <div class=""player2Name""><p>BaSa02</p></div>
            </div>

            <div style=""background-color: #f8f9fa; border-radius: 10px; padding: 15px; text-align: center; max-width: 400px;"">
                <p style=""font-family: 'Times New Roman', Times, serif; font-size: 18px; margin: 0;"">BaSa02 received <strong>$40.00</strong> and returned <strong>$19.90</strong> to you.</p>
            </div>
        </div></div>
    </div>",,,,,,,,,,,,,,,,,,,,
,,,,,"html-keyboard-response",61,946358,"0.0-11.0-0.0-7.0-3.0-0.0","67cdc3c7ea7918dcd6f2ab2d",,,,,,,"<div class=""gameHeader"">
        </div>
    <div class=""offerCard"" style=""height: auto; min-height: 90vh; overflow-y: auto; display: flex; justify-content: center;"">
        <div class=""bidOffer"" style=""overflow-y: auto; display: flex; flex-direction: column; justify-content: center;""><div class=""outcomeText""><p style=""font-family: 'Times New Roman', Times, serif; font-size: 18px;"">The next round will begin momentarily.</p>

    <p style=""font-family: 'Times New Roman', Times, serif; font-size: 18px;"">Please wait.</p></div></div>
    </div>",,,,,,,,,,,,,,,,,,,,
,,,,,"html-keyboard-response",62,947058,"0.0-11.0-0.0-8.0-0.0","67cdc3c7ea7918dcd6f2ab2d",,,699,"j",,,"<div class=""gameHeader"">
        </div>
    <div class=""offerCard"" style=""height: auto; min-height: 90vh; overflow-y: auto; display: flex; justify-content: center;"">
        <div class=""bidOffer"" style=""overflow-y: auto; display: flex; flex-direction: column; justify-content: center;"">
        <div class=""offers"">
        <div class=""textPrompt""><p style=""font-family: 'Times New Roman', Times, serif; font-size: 18px;"">How much money do you want
        <br>to give ClMa03?</p></div>
            <div class =""trustElements"">
            <div class=""player1Card""><p class=""player1Image""><img src=""src/images/gray_guy.png"" width=""150""></p>
                <div class=""player1Name""><p style=""font-family: 'Times New Roman', Times, serif; font-size: 18px;"">CHTH08</p></div>
            </div>

                <div class=""investmentCard"">
                    <div id=""leftBlock"" class=""leftBlock"">
                        <p style=""font-family: 'Times New Roman', Times, serif; font-size: 18px;"">$1</p>
                        <p style=""font-family: 'Times New Roman', Times, serif; font-size: 18px; margin-top: 5px; color: #666;"">Press ""F"" key</p>
                    </div>
                    <div id=""rightBlock"" class=""rightBlock"">
                        <p style=""font-family: 'Times New Roman', Times, serif; font-size: 18px;"">$10</p>
                        <p style=""font-family: 'Times New Roman', Times, serif; font-size: 18px; margin-top: 5px; color: #666;"">Press ""J"" key</p>
                    </div>
                </div>

            <div class=""player2Card""><p class=""player2Image""><img src=src/images/red_guy.png width=""150""></p>
                <div class=""player2Name""><p>ClMa03</p></div>
            </div>
            </div>
        </div>
        </div>
    </div>","make_choice",10,3,9,3,10.1,0.24792255803566482,0.00529338527874982,,,,,,,,,,,,
,,,,,"html-keyboard-response",63,949749,"0.0-11.0-0.0-8.0-1.0","67cdc3c7ea7918dcd6f2ab2d",,,,,,,"<div class=""gameHeader"">
        </div>
    <div class=""offerCard"" style=""height: auto; min-height: 90vh; overflow-y: auto; display: flex; justify-content: center;"">
        <div class=""bidOffer"" style=""overflow-y: auto; display: flex; flex-direction: column; justify-content: center;""><div class=""outcomeText""><p style=""font-family: 'Times New Roman', Times, serif; font-size: 18px;"">You selected $10.00</p>

        <p style=""font-family: 'Times New Roman', Times, serif; font-size: 18px;""><br>Your partner is deciding how much to return.</p></div></div>
    </div>",,,,,,,,,,,,,,,,,,,,
,,,,,"html-keyboard-response",64,953766,"0.0-11.0-0.0-8.0-2.0","67cdc3c7ea7918dcd6f2ab2d",,,,,,,"<div class=""gameHeader"">
        </div>
    <div class=""offerCard"" style=""height: auto; min-height: 90vh; overflow-y: auto; display: flex; justify-content: center;"">
        <div class=""bidOffer"" style=""overflow-y: auto; display: flex; flex-direction: column; justify-content: center;""><div style=""display: flex; flex-direction: column; align-items: center; justify-content: center; width: 100%;"">
            <div class=""player2Card"" style=""margin-bottom: 20px;"">
                <p class=""player2Image""><img src=src/images/red_guy.png width=""150""></p>
                <div class=""player2Name""><p>ClMa03</p></div>
            </div>

            <div style=""background-color: #f8f9fa; border-radius: 10px; padding: 15px; text-align: center; max-width: 400px;"">
                <p style=""font-family: 'Times New Roman', Times, serif; font-size: 18px; margin: 0;"">ClMa03 received <strong>$40.00</strong> and returned <strong>$10.10</strong> to you.</p>
            </div>
        </div></div>
    </div>",,,,,,,,,,,,,,,,,,,,
,,,,,"html-keyboard-response",65,957203,"0.0-11.0-0.0-8.0-3.0-0.0","67cdc3c7ea7918dcd6f2ab2d",,,,,,,"<div class=""gameHeader"">
        </div>
    <div class=""offerCard"" style=""height: auto; min-height: 90vh; overflow-y: auto; display: flex; justify-content: center;"">
        <div class=""bidOffer"" style=""overflow-y: auto; display: flex; flex-direction: column; justify-content: center;""><div class=""outcomeText""><p style=""font-family: 'Times New Roman', Times, serif; font-size: 18px;"">The next round will begin momentarily.</p>

    <p style=""font-family: 'Times New Roman', Times, serif; font-size: 18px;"">Please wait.</p></div></div>
    </div>",,,,,,,,,,,,,,,,,,,,
,,,,,"html-keyboard-response",66,957944,"0.0-11.0-0.0-9.0-0.0","67cdc3c7ea7918dcd6f2ab2d",,,740,"f",,,"<div class=""gameHeader"">
        </div>
    <div class=""offerCard"" style=""height: auto; min-height: 90vh; overflow-y: auto; display: flex; justify-content: center;"">
        <div class=""bidOffer"" style=""overflow-y: auto; display: flex; flex-direction: column; justify-content: center;"">
        <div class=""offers"">
        <div class=""textPrompt""><p style=""font-family: 'Times New Roman', Times, serif; font-size: 18px;"">How much money do you want
        <br>to give GePl10?</p></div>
            <div class =""trustElements"">
            <div class=""player1Card""><p class=""player1Image""><img src=""src/images/gray_guy.png"" width=""150""></p>
                <div class=""player1Name""><p style=""font-family: 'Times New Roman', Times, serif; font-size: 18px;"">CHTH08</p></div>
            </div>

                <div class=""investmentCard"">
                    <div id=""leftBlock"" class=""leftBlock"">
                        <p style=""font-family: 'Times New Roman', Times, serif; font-size: 18px;"">$1</p>
                        <p style=""font-family: 'Times New Roman', Times, serif; font-size: 18px; margin-top: 5px; color: #666;"">Press ""F"" key</p>
                    </div>
                    <div id=""rightBlock"" class=""rightBlock"">
                        <p style=""font-family: 'Times New Roman', Times, serif; font-size: 18px;"">$10</p>
                        <p style=""font-family: 'Times New Roman', Times, serif; font-size: 18px; margin-top: 5px; color: #666;"">Press ""J"" key</p>
                    </div>
                </div>

            <div class=""player2Card""><p class=""player2Image""><img src=src/images/green_guy.png width=""150""></p>
                <div class=""player2Name""><p>GePl10</p></div>
            </div>
            </div>
        </div>
        </div>
    </div>","make_choice",1,2,10,4,1,0.23871512701123507,0.0048254790604905515,,,,,,,,,,,,
,,,,,"html-keyboard-response",67,960202,"0.0-11.0-0.0-9.0-1.0","67cdc3c7ea7918dcd6f2ab2d",,,,,,,"<div class=""gameHeader"">
        </div>
    <div class=""offerCard"" style=""height: auto; min-height: 90vh; overflow-y: auto; display: flex; justify-content: center;"">
        <div class=""bidOffer"" style=""overflow-y: auto; display: flex; flex-direction: column; justify-content: center;""><div class=""outcomeText""><p style=""font-family: 'Times New Roman', Times, serif; font-size: 18px;"">You selected $1.00</p>

        <p style=""font-family: 'Times New Roman', Times, serif; font-size: 18px;""><br>Your partner is deciding how much to return.</p></div></div>
    </div>",,,,,,,,,,,,,,,,,,,,
,,,,,"html-keyboard-response",68,964217,"0.0-11.0-0.0-9.0-2.0","67cdc3c7ea7918dcd6f2ab2d",,,,,,,"<div class=""gameHeader"">
        </div>
    <div class=""offerCard"" style=""height: auto; min-height: 90vh; overflow-y: auto; display: flex; justify-content: center;"">
        <div class=""bidOffer"" style=""overflow-y: auto; display: flex; flex-direction: column; justify-content: center;""><div style=""display: flex; flex-direction: column; align-items: center; justify-content: center; width: 100%;"">
            <div class=""player2Card"" style=""margin-bottom: 20px;"">
                <p class=""player2Image""><img src=src/images/green_guy.png width=""150""></p>
                <div class=""player2Name""><p>GePl10</p></div>
            </div>

            <div style=""background-color: #f8f9fa; border-radius: 10px; padding: 15px; text-align: center; max-width: 400px;"">
                <p style=""font-family: 'Times New Roman', Times, serif; font-size: 18px; margin: 0;"">GePl10 received <strong>$4.00</strong> and returned <strong>$1.00</strong> to you.</p>
            </div>
        </div></div>
    </div>",,,,,,,,,,,,,,,,,,,,
,,,,,"html-keyboard-response",69,967312,"0.0-11.0-0.0-9.0-3.0-0.0","67cdc3c7ea7918dcd6f2ab2d",,,,,,,"<div class=""gameHeader"">
        </div>
    <div class=""offerCard"" style=""height: auto; min-height: 90vh; overflow-y: auto; display: flex; justify-content: center;"">
        <div class=""bidOffer"" style=""overflow-y: auto; display: flex; flex-direction: column; justify-content: center;""><div class=""outcomeText""><p style=""font-family: 'Times New Roman', Times, serif; font-size: 18px;"">The next round will begin momentarily.</p>

    <p style=""font-family: 'Times New Roman', Times, serif; font-size: 18px;"">Please wait.</p></div></div>
    </div>",,,,,,,,,,,,,,,,,,,,
,,,,,"html-keyboard-response",70,968132,"0.0-11.0-0.0-10.0-0.0","67cdc3c7ea7918dcd6f2ab2d",,,820,"j",,,"<div class=""gameHeader"">
        </div>
    <div class=""offerCard"" style=""height: auto; min-height: 90vh; overflow-y: auto; display: flex; justify-content: center;"">
        <div class=""bidOffer"" style=""overflow-y: auto; display: flex; flex-direction: column; justify-content: center;"">
        <div class=""offers"">
        <div class=""textPrompt""><p style=""font-family: 'Times New Roman', Times, serif; font-size: 18px;"">How much money do you want
        <br>to give KeJo10?</p></div>
            <div class =""trustElements"">
            <div class=""player1Card""><p class=""player1Image""><img src=""src/images/gray_guy.png"" width=""150""></p>
                <div class=""player1Name""><p style=""font-family: 'Times New Roman', Times, serif; font-size: 18px;"">CHTH08</p></div>
            </div>

                <div class=""investmentCard"">
                    <div id=""leftBlock"" class=""leftBlock"">
                        <p style=""font-family: 'Times New Roman', Times, serif; font-size: 18px;"">$1</p>
                        <p style=""font-family: 'Times New Roman', Times, serif; font-size: 18px; margin-top: 5px; color: #666;"">Press ""F"" key</p>
                    </div>
                    <div id=""rightBlock"" class=""rightBlock"">
                        <p style=""font-family: 'Times New Roman', Times, serif; font-size: 18px;"">$10</p>
                        <p style=""font-family: 'Times New Roman', Times, serif; font-size: 18px; margin-top: 5px; color: #666;"">Press ""J"" key</p>
                    </div>
                </div>

            <div class=""player2Card""><p class=""player2Image""><img src=src/images/blue_guy.png width=""150""></p>
                <div class=""player2Name""><p>KeJo10</p></div>
            </div>
            </div>
        </div>
        </div>
    </div>","make_choice",10,0,11,4,20,0.5,0.003851810958569494,,,,,,,,,,,,
,,,,,"html-keyboard-response",71,971857,"0.0-11.0-0.0-10.0-1.0","67cdc3c7ea7918dcd6f2ab2d",,,,,,,"<div class=""gameHeader"">
        </div>
    <div class=""offerCard"" style=""height: auto; min-height: 90vh; overflow-y: auto; display: flex; justify-content: center;"">
        <div class=""bidOffer"" style=""overflow-y: auto; display: flex; flex-direction: column; justify-content: center;""><div class=""outcomeText""><p style=""font-family: 'Times New Roman', Times, serif; font-size: 18px;"">You selected $10.00</p>

        <p style=""font-family: 'Times New Roman', Times, serif; font-size: 18px;""><br>Your partner is deciding how much to return.</p></div></div>
    </div>",,,,,,,,,,,,,,,,,,,,
,,,,,"html-keyboard-response",72,975860,"0.0-11.0-0.0-10.0-2.0","67cdc3c7ea7918dcd6f2ab2d",,,,,,,"<div class=""gameHeader"">
        </div>
    <div class=""offerCard"" style=""height: auto; min-height: 90vh; overflow-y: auto; display: flex; justify-content: center;"">
        <div class=""bidOffer"" style=""overflow-y: auto; display: flex; flex-direction: column; justify-content: center;""><div style=""display: flex; flex-direction: column; align-items: center; justify-content: center; width: 100%;"">
            <div class=""player2Card"" style=""margin-bottom: 20px;"">
                <p class=""player2Image""><img src=src/images/blue_guy.png width=""150""></p>
                <div class=""player2Name""><p>KeJo10</p></div>
            </div>

            <div style=""background-color: #f8f9fa; border-radius: 10px; padding: 15px; text-align: center; max-width: 400px;"">
                <p style=""font-family: 'Times New Roman', Times, serif; font-size: 18px; margin: 0;"">KeJo10 received <strong>$40.00</strong> and returned <strong>$20.00</strong> to you.</p>
            </div>
        </div></div>
    </div>",,,,,,,,,,,,,,,,,,,,
,,,,,"html-keyboard-response",73,978404,"0.0-11.0-0.0-10.0-3.0-0.0","67cdc3c7ea7918dcd6f2ab2d",,,,,,,"<div class=""gameHeader"">
        </div>
    <div class=""offerCard"" style=""height: auto; min-height: 90vh; overflow-y: auto; display: flex; justify-content: center;"">
        <div class=""bidOffer"" style=""overflow-y: auto; display: flex; flex-direction: column; justify-content: center;""><div class=""outcomeText""><p style=""font-family: 'Times New Roman', Times, serif; font-size: 18px;"">The next round will begin momentarily.</p>

    <p style=""font-family: 'Times New Roman', Times, serif; font-size: 18px;"">Please wait.</p></div></div>
    </div>",,,,,,,,,,,,,,,,,,,,
,,,,,"html-keyboard-response",74,979660,"0.0-11.0-0.0-11.0-0.0","67cdc3c7ea7918dcd6f2ab2d",,,1255,"f",,,"<div class=""gameHeader"">
        </div>
    <div class=""offerCard"" style=""height: auto; min-height: 90vh; overflow-y: auto; display: flex; justify-content: center;"">
        <div class=""bidOffer"" style=""overflow-y: auto; display: flex; flex-direction: column; justify-content: center;"">
        <div class=""offers"">
        <div class=""textPrompt""><p style=""font-family: 'Times New Roman', Times, serif; font-size: 18px;"">How much money do you want
        <br>to give BaSa02?</p></div>
            <div class =""trustElements"">
            <div class=""player1Card""><p class=""player1Image""><img src=""src/images/gray_guy.png"" width=""150""></p>
                <div class=""player1Name""><p style=""font-family: 'Times New Roman', Times, serif; font-size: 18px;"">CHTH08</p></div>
            </div>

                <div class=""investmentCard"">
                    <div id=""leftBlock"" class=""leftBlock"">
                        <p style=""font-family: 'Times New Roman', Times, serif; font-size: 18px;"">$1</p>
                        <p style=""font-family: 'Times New Roman', Times, serif; font-size: 18px; margin-top: 5px; color: #666;"">Press ""F"" key</p>
                    </div>
                    <div id=""rightBlock"" class=""rightBlock"">
                        <p style=""font-family: 'Times New Roman', Times, serif; font-size: 18px;"">$10</p>
                        <p style=""font-family: 'Times New Roman', Times, serif; font-size: 18px; margin-top: 5px; color: #666;"">Press ""J"" key</p>
                    </div>
                </div>

            <div class=""player2Card""><p class=""player2Image""><img src=src/images/yellow_guy.png width=""150""></p>
                <div class=""player2Name""><p>BaSa02</p></div>
            </div>
            </div>
        </div>
        </div>
    </div>","make_choice",1,1,12,4,1.9,0.49155944930628054,-0.014502402537321617,,,,,,,,,,,,
,,,,,"html-keyboard-response",75,982981,"0.0-11.0-0.0-11.0-1.0","67cdc3c7ea7918dcd6f2ab2d",,,,,,,"<div class=""gameHeader"">
        </div>
    <div class=""offerCard"" style=""height: auto; min-height: 90vh; overflow-y: auto; display: flex; justify-content: center;"">
        <div class=""bidOffer"" style=""overflow-y: auto; display: flex; flex-direction: column; justify-content: center;""><div class=""outcomeText""><p style=""font-family: 'Times New Roman', Times, serif; font-size: 18px;"">You selected $1.00</p>

        <p style=""font-family: 'Times New Roman', Times, serif; font-size: 18px;""><br>Your partner is deciding how much to return.</p></div></div>
    </div>",,,,,,,,,,,,,,,,,,,,
,,,,,"html-keyboard-response",76,986984,"0.0-11.0-0.0-11.0-2.0","67cdc3c7ea7918dcd6f2ab2d",,,,,,,"<div class=""gameHeader"">
        </div>
    <div class=""offerCard"" style=""height: auto; min-height: 90vh; overflow-y: auto; display: flex; justify-content: center;"">
        <div class=""bidOffer"" style=""overflow-y: auto; display: flex; flex-direction: column; justify-content: center;""><div style=""display: flex; flex-direction: column; align-items: center; justify-content: center; width: 100%;"">
            <div class=""player2Card"" style=""margin-bottom: 20px;"">
                <p class=""player2Image""><img src=src/images/yellow_guy.png width=""150""></p>
                <div class=""player2Name""><p>BaSa02</p></div>
            </div>

            <div style=""background-color: #f8f9fa; border-radius: 10px; padding: 15px; text-align: center; max-width: 400px;"">
                <p style=""font-family: 'Times New Roman', Times, serif; font-size: 18px; margin: 0;"">BaSa02 received <strong>$4.00</strong> and returned <strong>$1.90</strong> to you.</p>
            </div>
        </div></div>
    </div>",,,,,,,,,,,,,,,,,,,,
,,,,,"html-keyboard-response",77,990688,"0.0-11.0-0.0-11.0-3.0-0.0","67cdc3c7ea7918dcd6f2ab2d",,,,,,,"<div class=""gameHeader"">
        </div>
    <div class=""offerCard"" style=""height: auto; min-height: 90vh; overflow-y: auto; display: flex; justify-content: center;"">
        <div class=""bidOffer"" style=""overflow-y: auto; display: flex; flex-direction: column; justify-content: center;""><div class=""outcomeText""><p style=""font-family: 'Times New Roman', Times, serif; font-size: 18px;"">The next round will begin momentarily.</p>

    <p style=""font-family: 'Times New Roman', Times, serif; font-size: 18px;"">Please wait.</p></div></div>
    </div>",,,,,,,,,,,,,,,,,,,,
,,,,,"html-keyboard-response",78,991361,"0.0-11.0-0.0-12.0-0.0","67cdc3c7ea7918dcd6f2ab2d",,,672,"j",,,"<div class=""gameHeader"">
        </div>
    <div class=""offerCard"" style=""height: auto; min-height: 90vh; overflow-y: auto; display: flex; justify-content: center;"">
        <div class=""bidOffer"" style=""overflow-y: auto; display: flex; flex-direction: column; justify-content: center;"">
        <div class=""offers"">
        <div class=""textPrompt""><p style=""font-family: 'Times New Roman', Times, serif; font-size: 18px;"">How much money do you want
        <br>to give GePl10?</p></div>
            <div class =""trustElements"">
            <div class=""player1Card""><p class=""player1Image""><img src=""src/images/gray_guy.png"" width=""150""></p>
                <div class=""player1Name""><p style=""font-family: 'Times New Roman', Times, serif; font-size: 18px;"">CHTH08</p></div>
            </div>

                <div class=""investmentCard"">
                    <div id=""leftBlock"" class=""leftBlock"">
                        <p style=""font-family: 'Times New Roman', Times, serif; font-size: 18px;"">$1</p>
                        <p style=""font-family: 'Times New Roman', Times, serif; font-size: 18px; margin-top: 5px; color: #666;"">Press ""F"" key</p>
                    </div>
                    <div id=""rightBlock"" class=""rightBlock"">
                        <p style=""font-family: 'Times New Roman', Times, serif; font-size: 18px;"">$10</p>
                        <p style=""font-family: 'Times New Roman', Times, serif; font-size: 18px; margin-top: 5px; color: #666;"">Press ""J"" key</p>
                    </div>
                </div>

            <div class=""player2Card""><p class=""player2Image""><img src=src/images/green_guy.png width=""150""></p>
                <div class=""player2Name""><p>GePl10</p></div>
            </div>
            </div>
        </div>
        </div>
    </div>","make_choice",10,2,13,5,10.5,0.2701353402684198,-0.007300079068589795,,,,,,,,,,,,
,,,,,"html-keyboard-response",79,993904,"0.0-11.0-0.0-12.0-1.0","67cdc3c7ea7918dcd6f2ab2d",,,,,,,"<div class=""gameHeader"">
        </div>
    <div class=""offerCard"" style=""height: auto; min-height: 90vh; overflow-y: auto; display: flex; justify-content: center;"">
        <div class=""bidOffer"" style=""overflow-y: auto; display: flex; flex-direction: column; justify-content: center;""><div class=""outcomeText""><p style=""font-family: 'Times New Roman', Times, serif; font-size: 18px;"">You selected $10.00</p>

        <p style=""font-family: 'Times New Roman', Times, serif; font-size: 18px;""><br>Your partner is deciding how much to return.</p></div></div>
    </div>",,,,,,,,,,,,,,,,,,,,
,,,,,"html-keyboard-response",80,997906,"0.0-11.0-0.0-12.0-2.0","67cdc3c7ea7918dcd6f2ab2d",,,,,,,"<div class=""gameHeader"">
        </div>
    <div class=""offerCard"" style=""height: auto; min-height: 90vh; overflow-y: auto; display: flex; justify-content: center;"">
        <div class=""bidOffer"" style=""overflow-y: auto; display: flex; flex-direction: column; justify-content: center;""><div style=""display: flex; flex-direction: column; align-items: center; justify-content: center; width: 100%;"">
            <div class=""player2Card"" style=""margin-bottom: 20px;"">
                <p class=""player2Image""><img src=src/images/green_guy.png width=""150""></p>
                <div class=""player2Name""><p>GePl10</p></div>
            </div>

            <div style=""background-color: #f8f9fa; border-radius: 10px; padding: 15px; text-align: center; max-width: 400px;"">
                <p style=""font-family: 'Times New Roman', Times, serif; font-size: 18px; margin: 0;"">GePl10 received <strong>$40.00</strong> and returned <strong>$10.50</strong> to you.</p>
            </div>
        </div></div>
    </div>",,,,,,,,,,,,,,,,,,,,
,,,,,"html-keyboard-response",81,1001108,"0.0-11.0-0.0-12.0-3.0-0.0","67cdc3c7ea7918dcd6f2ab2d",,,,,,,"<div class=""gameHeader"">
        </div>
    <div class=""offerCard"" style=""height: auto; min-height: 90vh; overflow-y: auto; display: flex; justify-content: center;"">
        <div class=""bidOffer"" style=""overflow-y: auto; display: flex; flex-direction: column; justify-content: center;""><div class=""outcomeText""><p style=""font-family: 'Times New Roman', Times, serif; font-size: 18px;"">The next round will begin momentarily.</p>

    <p style=""font-family: 'Times New Roman', Times, serif; font-size: 18px;"">Please wait.</p></div></div>
    </div>",,,,,,,,,,,,,,,,,,,,
,,,,,"html-keyboard-response",82,1002404,"0.0-11.0-0.0-13.0-0.0","67cdc3c7ea7918dcd6f2ab2d",,,1294,"f",,,"<div class=""gameHeader"">
        </div>
    <div class=""offerCard"" style=""height: auto; min-height: 90vh; overflow-y: auto; display: flex; justify-content: center;"">
        <div class=""bidOffer"" style=""overflow-y: auto; display: flex; flex-direction: column; justify-content: center;"">
        <div class=""offers"">
        <div class=""textPrompt""><p style=""font-family: 'Times New Roman', Times, serif; font-size: 18px;"">How much money do you want
        <br>to give BaSa02?</p></div>
            <div class =""trustElements"">
            <div class=""player1Card""><p class=""player1Image""><img src=""src/images/gray_guy.png"" width=""150""></p>
                <div class=""player1Name""><p style=""font-family: 'Times New Roman', Times, serif; font-size: 18px;"">CHTH08</p></div>
            </div>

                <div class=""investmentCard"">
                    <div id=""leftBlock"" class=""leftBlock"">
                        <p style=""font-family: 'Times New Roman', Times, serif; font-size: 18px;"">$1</p>
                        <p style=""font-family: 'Times New Roman', Times, serif; font-size: 18px; margin-top: 5px; color: #666;"">Press ""F"" key</p>
                    </div>
                    <div id=""rightBlock"" class=""rightBlock"">
                        <p style=""font-family: 'Times New Roman', Times, serif; font-size: 18px;"">$10</p>
                        <p style=""font-family: 'Times New Roman', Times, serif; font-size: 18px; margin-top: 5px; color: #666;"">Press ""J"" key</p>
                    </div>
                </div>

            <div class=""player2Card""><p class=""player2Image""><img src=src/images/yellow_guy.png width=""150""></p>
                <div class=""player2Name""><p>BaSa02</p></div>
            </div>
            </div>
        </div>
        </div>
    </div>","make_choice",1,1,14,5,2,0.4945222244108515,-0.002845908711209755,,,,,,,,,,,,
,,,,,"html-keyboard-response",83,1005717,"0.0-11.0-0.0-13.0-1.0","67cdc3c7ea7918dcd6f2ab2d",,,,,,,"<div class=""gameHeader"">
        </div>
    <div class=""offerCard"" style=""height: auto; min-height: 90vh; overflow-y: auto; display: flex; justify-content: center;"">
        <div class=""bidOffer"" style=""overflow-y: auto; display: flex; flex-direction: column; justify-content: center;""><div class=""outcomeText""><p style=""font-family: 'Times New Roman', Times, serif; font-size: 18px;"">You selected $1.00</p>

        <p style=""font-family: 'Times New Roman', Times, serif; font-size: 18px;""><br>Your partner is deciding how much to return.</p></div></div>
    </div>",,,,,,,,,,,,,,,,,,,,
,,,,,"html-keyboard-response",84,1009748,"0.0-11.0-0.0-13.0-2.0","67cdc3c7ea7918dcd6f2ab2d",,,,,,,"<div class=""gameHeader"">
        </div>
    <div class=""offerCard"" style=""height: auto; min-height: 90vh; overflow-y: auto; display: flex; justify-content: center;"">
        <div class=""bidOffer"" style=""overflow-y: auto; display: flex; flex-direction: column; justify-content: center;""><div style=""display: flex; flex-direction: column; align-items: center; justify-content: center; width: 100%;"">
            <div class=""player2Card"" style=""margin-bottom: 20px;"">
                <p class=""player2Image""><img src=src/images/yellow_guy.png width=""150""></p>
                <div class=""player2Name""><p>BaSa02</p></div>
            </div>

            <div style=""background-color: #f8f9fa; border-radius: 10px; padding: 15px; text-align: center; max-width: 400px;"">
                <p style=""font-family: 'Times New Roman', Times, serif; font-size: 18px; margin: 0;"">BaSa02 received <strong>$4.00</strong> and returned <strong>$2.00</strong> to you.</p>
            </div>
        </div></div>
    </div>",,,,,,,,,,,,,,,,,,,,
,,,,,"html-keyboard-response",85,1012248,"0.0-11.0-0.0-13.0-3.0-0.0","67cdc3c7ea7918dcd6f2ab2d",,,,,,,"<div class=""gameHeader"">
        </div>
    <div class=""offerCard"" style=""height: auto; min-height: 90vh; overflow-y: auto; display: flex; justify-content: center;"">
        <div class=""bidOffer"" style=""overflow-y: auto; display: flex; flex-direction: column; justify-content: center;""><div class=""outcomeText""><p style=""font-family: 'Times New Roman', Times, serif; font-size: 18px;"">The next round will begin momentarily.</p>

    <p style=""font-family: 'Times New Roman', Times, serif; font-size: 18px;"">Please wait.</p></div></div>
    </div>",,,,,,,,,,,,,,,,,,,,
,,,,,"html-keyboard-response",86,1012655,"0.0-11.0-0.0-14.0-0.0","67cdc3c7ea7918dcd6f2ab2d",,,406,"j",,,"<div class=""gameHeader"">
        </div>
    <div class=""offerCard"" style=""height: auto; min-height: 90vh; overflow-y: auto; display: flex; justify-content: center;"">
        <div class=""bidOffer"" style=""overflow-y: auto; display: flex; flex-direction: column; justify-content: center;"">
        <div class=""offers"">
        <div class=""textPrompt""><p style=""font-family: 'Times New Roman', Times, serif; font-size: 18px;"">How much money do you want
        <br>to give KeJo10?</p></div>
            <div class =""trustElements"">
            <div class=""player1Card""><p class=""player1Image""><img src=""src/images/gray_guy.png"" width=""150""></p>
                <div class=""player1Name""><p style=""font-family: 'Times New Roman', Times, serif; font-size: 18px;"">CHTH08</p></div>
            </div>

                <div class=""investmentCard"">
                    <div id=""leftBlock"" class=""leftBlock"">
                        <p style=""font-family: 'Times New Roman', Times, serif; font-size: 18px;"">$1</p>
                        <p style=""font-family: 'Times New Roman', Times, serif; font-size: 18px; margin-top: 5px; color: #666;"">Press ""F"" key</p>
                    </div>
                    <div id=""rightBlock"" class=""rightBlock"">
                        <p style=""font-family: 'Times New Roman', Times, serif; font-size: 18px;"">$10</p>
                        <p style=""font-family: 'Times New Roman', Times, serif; font-size: 18px; margin-top: 5px; color: #666;"">Press ""J"" key</p>
                    </div>
                </div>

            <div class=""player2Card""><p class=""player2Image""><img src=src/images/blue_guy.png width=""150""></p>
                <div class=""player2Name""><p>KeJo10</p></div>
            </div>
            </div>
        </div>
        </div>
    </div>","make_choice",10,0,15,5,18.9,0.481636883952101,-0.008487002805325376,,,,,,,,,,,,
,,,,,"html-keyboard-response",87,1015561,"0.0-11.0-0.0-14.0-1.0","67cdc3c7ea7918dcd6f2ab2d",,,,,,,"<div class=""gameHeader"">
        </div>
    <div class=""offerCard"" style=""height: auto; min-height: 90vh; overflow-y: auto; display: flex; justify-content: center;"">
        <div class=""bidOffer"" style=""overflow-y: auto; display: flex; flex-direction: column; justify-content: center;""><div class=""outcomeText""><p style=""font-family: 'Times New Roman', Times, serif; font-size: 18px;"">You selected $10.00</p>

        <p style=""font-family: 'Times New Roman', Times, serif; font-size: 18px;""><br>Your partner is deciding how much to return.</p></div></div>
    </div>",,,,,,,,,,,,,,,,,,,,
,,,,,"html-keyboard-response",88,1019575,"0.0-11.0-0.0-14.0-2.0","67cdc3c7ea7918dcd6f2ab2d",,,,,,,"<div class=""gameHeader"">
        </div>
    <div class=""offerCard"" style=""height: auto; min-height: 90vh; overflow-y: auto; display: flex; justify-content: center;"">
        <div class=""bidOffer"" style=""overflow-y: auto; display: flex; flex-direction: column; justify-content: center;""><div style=""display: flex; flex-direction: column; align-items: center; justify-content: center; width: 100%;"">
            <div class=""player2Card"" style=""margin-bottom: 20px;"">
                <p class=""player2Image""><img src=src/images/blue_guy.png width=""150""></p>
                <div class=""player2Name""><p>KeJo10</p></div>
            </div>

            <div style=""background-color: #f8f9fa; border-radius: 10px; padding: 15px; text-align: center; max-width: 400px;"">
                <p style=""font-family: 'Times New Roman', Times, serif; font-size: 18px; margin: 0;"">KeJo10 received <strong>$40.00</strong> and returned <strong>$18.90</strong> to you.</p>
            </div>
        </div></div>
    </div>",,,,,,,,,,,,,,,,,,,,
,,,,,"html-keyboard-response",89,1022169,"0.0-11.0-0.0-14.0-3.0-0.0","67cdc3c7ea7918dcd6f2ab2d",,,,,,,"<div class=""gameHeader"">
        </div>
    <div class=""offerCard"" style=""height: auto; min-height: 90vh; overflow-y: auto; display: flex; justify-content: center;"">
        <div class=""bidOffer"" style=""overflow-y: auto; display: flex; flex-direction: column; justify-content: center;""><div class=""outcomeText""><p style=""font-family: 'Times New Roman', Times, serif; font-size: 18px;"">The next round will begin momentarily.</p>

    <p style=""font-family: 'Times New Roman', Times, serif; font-size: 18px;"">Please wait.</p></div></div>
    </div>",,,,,,,,,,,,,,,,,,,,
,,,,,"html-keyboard-response",90,1023586,"0.0-11.0-0.0-15.0-0.0","67cdc3c7ea7918dcd6f2ab2d",,,1415,"f",,,"<div class=""gameHeader"">
        </div>
    <div class=""offerCard"" style=""height: auto; min-height: 90vh; overflow-y: auto; display: flex; justify-content: center;"">
        <div class=""bidOffer"" style=""overflow-y: auto; display: flex; flex-direction: column; justify-content: center;"">
        <div class=""offers"">
        <div class=""textPrompt""><p style=""font-family: 'Times New Roman', Times, serif; font-size: 18px;"">How much money do you want
        <br>to give ClMa03?</p></div>
            <div class =""trustElements"">
            <div class=""player1Card""><p class=""player1Image""><img src=""src/images/gray_guy.png"" width=""150""></p>
                <div class=""player1Name""><p style=""font-family: 'Times New Roman', Times, serif; font-size: 18px;"">CHTH08</p></div>
            </div>

                <div class=""investmentCard"">
                    <div id=""leftBlock"" class=""leftBlock"">
                        <p style=""font-family: 'Times New Roman', Times, serif; font-size: 18px;"">$1</p>
                        <p style=""font-family: 'Times New Roman', Times, serif; font-size: 18px; margin-top: 5px; color: #666;"">Press ""F"" key</p>
                    </div>
                    <div id=""rightBlock"" class=""rightBlock"">
                        <p style=""font-family: 'Times New Roman', Times, serif; font-size: 18px;"">$10</p>
                        <p style=""font-family: 'Times New Roman', Times, serif; font-size: 18px; margin-top: 5px; color: #666;"">Press ""J"" key</p>
                    </div>
                </div>

            <div class=""player2Card""><p class=""player2Image""><img src=src/images/red_guy.png width=""150""></p>
                <div class=""player2Name""><p>ClMa03</p></div>
            </div>
            </div>
        </div>
        </div>
    </div>","make_choice",1,3,16,6,0.9,0.23446310210346571,-0.005140366732297362,,,,,,,,,,,,
,,,,,"html-keyboard-response",91,1025717,"0.0-11.0-0.0-15.0-1.0","67cdc3c7ea7918dcd6f2ab2d",,,,,,,"<div class=""gameHeader"">
        </div>
    <div class=""offerCard"" style=""height: auto; min-height: 90vh; overflow-y: auto; display: flex; justify-content: center;"">
        <div class=""bidOffer"" style=""overflow-y: auto; display: flex; flex-direction: column; justify-content: center;""><div class=""outcomeText""><p style=""font-family: 'Times New Roman', Times, serif; font-size: 18px;"">You selected $1.00</p>

        <p style=""font-family: 'Times New Roman', Times, serif; font-size: 18px;""><br>Your partner is deciding how much to return.</p></div></div>
    </div>",,,,,,,,,,,,,,,,,,,,
,,,,,"html-keyboard-response",92,1029732,"0.0-11.0-0.0-15.0-2.0","67cdc3c7ea7918dcd6f2ab2d",,,,,,,"<div class=""gameHeader"">
        </div>
    <div class=""offerCard"" style=""height: auto; min-height: 90vh; overflow-y: auto; display: flex; justify-content: center;"">
        <div class=""bidOffer"" style=""overflow-y: auto; display: flex; flex-direction: column; justify-content: center;""><div style=""display: flex; flex-direction: column; align-items: center; justify-content: center; width: 100%;"">
            <div class=""player2Card"" style=""margin-bottom: 20px;"">
                <p class=""player2Image""><img src=src/images/red_guy.png width=""150""></p>
                <div class=""player2Name""><p>ClMa03</p></div>
            </div>

            <div style=""background-color: #f8f9fa; border-radius: 10px; padding: 15px; text-align: center; max-width: 400px;"">
                <p style=""font-family: 'Times New Roman', Times, serif; font-size: 18px; margin: 0;"">ClMa03 received <strong>$4.00</strong> and returned <strong>$0.90</strong> to you.</p>
            </div>
        </div></div>
    </div>",,,,,,,,,,,,,,,,,,,,
,,,,,"html-keyboard-response",93,1031871,"0.0-11.0-0.0-15.0-3.0-0.0","67cdc3c7ea7918dcd6f2ab2d",,,,,,,"<div class=""gameHeader"">
        </div>
    <div class=""offerCard"" style=""height: auto; min-height: 90vh; overflow-y: auto; display: flex; justify-content: center;"">
        <div class=""bidOffer"" style=""overflow-y: auto; display: flex; flex-direction: column; justify-content: center;""><div class=""outcomeText""><p style=""font-family: 'Times New Roman', Times, serif; font-size: 18px;"">The next round will begin momentarily.</p>

    <p style=""font-family: 'Times New Roman', Times, serif; font-size: 18px;"">Please wait.</p></div></div>
    </div>",,,,,,,,,,,,,,,,,,,,
,,,,,"html-keyboard-response",94,1032349,"0.0-11.0-0.0-16.0-0.0","67cdc3c7ea7918dcd6f2ab2d",,,477,"j",,,"<div class=""gameHeader"">
        </div>
    <div class=""offerCard"" style=""height: auto; min-height: 90vh; overflow-y: auto; display: flex; justify-content: center;"">
        <div class=""bidOffer"" style=""overflow-y: auto; display: flex; flex-direction: column; justify-content: center;"">
        <div class=""offers"">
        <div class=""textPrompt""><p style=""font-family: 'Times New Roman', Times, serif; font-size: 18px;"">How much money do you want
        <br>to give KeJo10?</p></div>
            <div class =""trustElements"">
            <div class=""player1Card""><p class=""player1Image""><img src=""src/images/gray_guy.png"" width=""150""></p>
                <div class=""player1Name""><p style=""font-family: 'Times New Roman', Times, serif; font-size: 18px;"">CHTH08</p></div>
            </div>

                <div class=""investmentCard"">
                    <div id=""leftBlock"" class=""leftBlock"">
                        <p style=""font-family: 'Times New Roman', Times, serif; font-size: 18px;"">$1</p>
                        <p style=""font-family: 'Times New Roman', Times, serif; font-size: 18px; margin-top: 5px; color: #666;"">Press ""F"" key</p>
                    </div>
