"success","timeout","failed_images","failed_audio","failed_video","trial_type","trial_index","time_elapsed","internal_node_id","participant_id","PID","start_time","rt","response","view_history","question_order","stimulus","task","choice","player_num","trial_num","binned_trial_num","reward","prop_return","prop_return_noise","survey_type","pattern_response","source_partner_0","source_name_0","target_name_0","correct_0","source_partner_2","source_name_2","target_name_2","correct_2","total_correct","total_questions","accuracy"
true,false,"[]","[]","[]","preload",0,338,"0.0-0.0","663a7dc83986ee24fb6ec0e6",,,,,,,,,,,,,,,,,,,,,,,,,,,,
true,,,,,"fullscreen",1,4295,"0.0-1.0","663a7dc83986ee24fb6ec0e6",,,2947,,,,,,,,,,,,,,,,,,,,,,,,,
,,,,,"survey-html-form",2,6592,"0.0-2.0","663a7dc83986ee24fb6ec0e6",,,2292,"{""participant_id"":""663a7dc83986ee24fb6ec0e6""}",,,,,,,,,,,,,,,,,,,,,,,,
,,,,,"survey-html-form",3,28655,"0.0-3.0","663a7dc83986ee24fb6ec0e6",,,22062,"{""session_username"":""PaCo03""}",,,,,,,,,,,,,,,,,,,,,,,,
,,,,,"instructions",4,31207,"0.0-4.0","663a7dc83986ee24fb6ec0e6",,,2550,,"[{""page_index"":0,""viewing_time"":2550}]",,,,,,,,,,,,,,,,,,,,,,,
,,,,,"instructions",5,109766,"0.0-5.0-0.0","663a7dc83986ee24fb6ec0e6",,,78559,,"[{""page_index"":0,""viewing_time"":11307},{""page_index"":1,""viewing_time"":28591},{""page_index"":2,""viewing_time"":23375},{""page_index"":3,""viewing_time"":15285}]",,,,,,,,,,,,,,,,,,,,,,,
,,,,,"survey-multi-choice",6,137445,"0.0-5.0-1.0","663a7dc83986ee24fb6ec0e6",,,27677,"{""min_max"":""<span style='font-family: Times New Roman, Times, serif; font-size: 18px;'>$1 minimum, $10 maximum</span>"",""scenario_1"":""<span style='font-family: Times New Roman, Times, serif; font-size: 18px;'>You: $9.50, Partner: $3.50</span>"",""scenario_2"":""<span style='font-family: Times New Roman, Times, serif; font-size: 18px;'>You: $20.00, Partner: $20.00</span>"",""trials_selected"":""<span style='font-family: Times New Roman, Times, serif; font-size: 18px;'>4 trials</span>""}",,"[0,1,2,3]",,,,,,,,,,,,,,,,,,,,,,
,,,,,"html-keyboard-response",7,140020,"0.0-5.0-2.0","663a7dc83986ee24fb6ec0e6",,,2572," ",,,"<div class=""wrapTextBox""><p style=""font-family: Times New Roman, Times, serif; font-size: 18px; margin-bottom: 20px;""><strong>Comprehension Check Results</strong></p><p style=""font-family: Times New Roman, Times, serif; font-size: 18px; color: green;"">✓ What is the minimum and maximum you can share - Correct</p><p style=""font-family: Times New Roman, Times, serif; font-size: 18px; color: green;"">✓ If you share $1.00 and partner returns $0.50 - Correct</p><p style=""font-family: Times New Roman, Times, serif; font-size: 18px; color: green;"">✓ If you share $10.00 and partner returns half - Correct</p><p style=""font-family: Times New Roman, Times, serif; font-size: 18px; color: green;"">✓ How many trials determine your bonus payment - Correct</p><p style=""font-family: Times New Roman, Times, serif; color: green; font-weight: bold; margin-top: 20px; font-size: 18px;"">All answers are correct! You can now proceed to the experiment.</p></div>",,,,,,,,,,,,,,,,,,,,,
,,,,,"html-keyboard-response",8,142956,"0.0-6.0","663a7dc83986ee24fb6ec0e6",,,2936," ",,,"[""<div class=\""gameHeader\"">\n        </div>\n    <div class=\""offerCard\"" style=\""height: auto; min-height: 90vh; overflow-y: auto; display: flex; justify-content: center;\"">\n        <div class=\""bidOffer\"" style=\""overflow-y: auto; display: flex; flex-direction: column; justify-content: center;\"">\n    <div class =\""wrapTextBox\"">\n        <p style=\""font-family: 'Times New Roman', Times, serif; font-size: 18px;\"">All participants are ready to begin the session.</p>\n        <p style=\""font-family: 'Times New Roman', Times, serif; font-size: 18px;\"">Four participants have been randomly matched as your partners for this experiment.</p>\n        <p style=\""font-family: 'Times New Roman', Times, serif; font-size: 18px;\""><strong>Press the spacebar to begin the game!</strong></p>\n    </div>\n    </div>\n    </div>""]",,,,,,,,,,,,,,,,,,,,,
,,,,,"html-keyboard-response",9,148614,"0.0-7.0","663a7dc83986ee24fb6ec0e6",,,5657," ",,,"<div class=""gameHeader"">
        </div>
    <div class=""offerCard"">
        <div class=""bidOffer"">
            <div class=""instructionsText"">
        <div class =""wrapTextBox"">
            <p><strong>Practice Phase</strong></p>
            <p>Let's practice the task before starting the real experiment.</p>
            <p>You will complete 4 practice trials. These won't count toward your final payment.</p>
            <p>Press the spacebar to begin practice.</p>
        </div>
        </div>
        </div>
    </div>",,,,,,,,,,,,,,,,,,,,,
,,,,,"html-keyboard-response",10,149778,"0.0-8.0-0.0","663a7dc83986ee24fb6ec0e6",,,1163,"j",,,"<div class=""gameHeader"">
        </div>
    <div class=""offerCard"" style=""height: auto; min-height: 90vh; overflow-y: auto; display: flex; justify-content: center;"">
        <div class=""bidOffer"" style=""overflow-y: auto; display: flex; flex-direction: column; justify-content: center;"">
        <div class=""offers"">
        <div class=""textPrompt""><p style=""font-family: 'Times New Roman', Times, serif; font-size: 18px;"">How much money do you want
        <br>to give Partner?</p></div>
            <div class =""trustElements"">
            <div class=""player1Card""><p class=""player1Image""><img src=""src/images/gray_guy.png"" width=""150""></p>
                <div class=""player1Name""><p style=""font-family: 'Times New Roman', Times, serif; font-size: 18px;"">PaCo03</p></div>
            </div>

                <div class=""investmentCard"">
                    <div id=""leftBlock"" class=""leftBlock"">
                        <p style=""font-family: 'Times New Roman', Times, serif; font-size: 18px;"">$1</p>
                        <p style=""font-family: 'Times New Roman', Times, serif; font-size: 18px; margin-top: 5px; color: #666;"">Press ""F"" key</p>
                    </div>
                    <div id=""rightBlock"" class=""rightBlock"">
                        <p style=""font-family: 'Times New Roman', Times, serif; font-size: 18px;"">$10</p>
                        <p style=""font-family: 'Times New Roman', Times, serif; font-size: 18px; margin-top: 5px; color: #666;"">Press ""J"" key</p>
                    </div>
                </div>

            <div class=""player2Card""><p class=""player2Image""><img src=src/images/blue_guy.png width=""150""></p>
                <div class=""player2Name""><p>Partner</p></div>
            </div>
            </div>
        </div>
        </div>
    </div>","practice_choice",10,0,1,1,14,0.35604588187698033,-0.005275031425134408,,,,,,,,,,,,,
,,,,,"html-keyboard-response",11,153510,"0.0-8.0-1.0","663a7dc83986ee24fb6ec0e6",,,,,,,"<div class=""gameHeader"">
        </div>
    <div class=""offerCard"" style=""height: auto; min-height: 90vh; overflow-y: auto; display: flex; justify-content: center;"">
        <div class=""bidOffer"" style=""overflow-y: auto; display: flex; flex-direction: column; justify-content: center;""><div class=""outcomeText""><p style=""font-family: 'Times New Roman', Times, serif; font-size: 18px;"">You selected $10.00</p>

        <p style=""font-family: 'Times New Roman', Times, serif; font-size: 18px;""><br>Your partner is deciding how much to return.</p></div></div>
    </div>",,,,,,,,,,,,,,,,,,,,,
,,,,,"html-keyboard-response",12,157515,"0.0-8.0-2.0","663a7dc83986ee24fb6ec0e6",,,,,,,"<div class=""gameHeader"">
        </div>
    <div class=""offerCard"" style=""height: auto; min-height: 90vh; overflow-y: auto; display: flex; justify-content: center;"">
        <div class=""bidOffer"" style=""overflow-y: auto; display: flex; flex-direction: column; justify-content: center;""><div style=""display: flex; flex-direction: column; align-items: center; justify-content: center; width: 100%;"">
            <div class=""player2Card"" style=""margin-bottom: 20px;"">
                <p class=""player2Image""><img src=src/images/blue_guy.png width=""150""></p>
                <div class=""player2Name""><p>Partner</p></div>
            </div>

            <div style=""background-color: #f8f9fa; border-radius: 10px; padding: 15px; text-align: center; max-width: 400px;"">
                <p style=""font-family: 'Times New Roman', Times, serif; font-size: 18px; margin: 0;"">Partner received <strong>$40.00</strong> and returned <strong>$14.00</strong> to you.</p>
            </div>
        </div></div>
    </div>",,,,,,,,,,,,,,,,,,,,,
,,,,,"html-keyboard-response",13,161514,"0.0-8.0-3.0-0.0","663a7dc83986ee24fb6ec0e6",,,,,,,"<div class=""gameHeader"">
        </div>
    <div class=""offerCard"" style=""height: auto; min-height: 90vh; overflow-y: auto; display: flex; justify-content: center;"">
        <div class=""bidOffer"" style=""overflow-y: auto; display: flex; flex-direction: column; justify-content: center;""><div class=""outcomeText""><p style=""font-family: 'Times New Roman', Times, serif; font-size: 18px;"">The next round will begin momentarily.</p>

    <p style=""font-family: 'Times New Roman', Times, serif; font-size: 18px;"">Please wait.</p></div></div>
    </div>",,,,,,,,,,,,,,,,,,,,,
,,,,,"html-keyboard-response",14,161962,"0.0-8.0-0.1","663a7dc83986ee24fb6ec0e6",,,446,"j",,,"<div class=""gameHeader"">
        </div>
    <div class=""offerCard"" style=""height: auto; min-height: 90vh; overflow-y: auto; display: flex; justify-content: center;"">
        <div class=""bidOffer"" style=""overflow-y: auto; display: flex; flex-direction: column; justify-content: center;"">
        <div class=""offers"">
        <div class=""textPrompt""><p style=""font-family: 'Times New Roman', Times, serif; font-size: 18px;"">How much money do you want
        <br>to give Partner?</p></div>
            <div class =""trustElements"">
            <div class=""player1Card""><p class=""player1Image""><img src=""src/images/gray_guy.png"" width=""150""></p>
                <div class=""player1Name""><p style=""font-family: 'Times New Roman', Times, serif; font-size: 18px;"">PaCo03</p></div>
            </div>

                <div class=""investmentCard"">
                    <div id=""leftBlock"" class=""leftBlock"">
                        <p style=""font-family: 'Times New Roman', Times, serif; font-size: 18px;"">$1</p>
                        <p style=""font-family: 'Times New Roman', Times, serif; font-size: 18px; margin-top: 5px; color: #666;"">Press ""F"" key</p>
                    </div>
                    <div id=""rightBlock"" class=""rightBlock"">
                        <p style=""font-family: 'Times New Roman', Times, serif; font-size: 18px;"">$10</p>
                        <p style=""font-family: 'Times New Roman', Times, serif; font-size: 18px; margin-top: 5px; color: #666;"">Press ""J"" key</p>
                    </div>
                </div>

            <div class=""player2Card""><p class=""player2Image""><img src=src/images/yellow_guy.png width=""150""></p>
                <div class=""player2Name""><p>Partner</p></div>
            </div>
            </div>
        </div>
        </div>
    </div>","practice_choice",10,1,2,1,14.8,0.36132693190684567,0.00798618258168846,,,,,,,,,,,,,
,,,,,"html-keyboard-response",15,164615,"0.0-8.0-1.1","663a7dc83986ee24fb6ec0e6",,,,,,,"<div class=""gameHeader"">
        </div>
    <div class=""offerCard"" style=""height: auto; min-height: 90vh; overflow-y: auto; display: flex; justify-content: center;"">
        <div class=""bidOffer"" style=""overflow-y: auto; display: flex; flex-direction: column; justify-content: center;""><div class=""outcomeText""><p style=""font-family: 'Times New Roman', Times, serif; font-size: 18px;"">You selected $10.00</p>

        <p style=""font-family: 'Times New Roman', Times, serif; font-size: 18px;""><br>Your partner is deciding how much to return.</p></div></div>
    </div>",,,,,,,,,,,,,,,,,,,,,
,,,,,"html-keyboard-response",16,168618,"0.0-8.0-2.1","663a7dc83986ee24fb6ec0e6",,,,,,,"<div class=""gameHeader"">
        </div>
    <div class=""offerCard"" style=""height: auto; min-height: 90vh; overflow-y: auto; display: flex; justify-content: center;"">
        <div class=""bidOffer"" style=""overflow-y: auto; display: flex; flex-direction: column; justify-content: center;""><div style=""display: flex; flex-direction: column; align-items: center; justify-content: center; width: 100%;"">
            <div class=""player2Card"" style=""margin-bottom: 20px;"">
                <p class=""player2Image""><img src=src/images/yellow_guy.png width=""150""></p>
                <div class=""player2Name""><p>Partner</p></div>
            </div>

            <div style=""background-color: #f8f9fa; border-radius: 10px; padding: 15px; text-align: center; max-width: 400px;"">
                <p style=""font-family: 'Times New Roman', Times, serif; font-size: 18px; margin: 0;"">Partner received <strong>$40.00</strong> and returned <strong>$14.80</strong> to you.</p>
            </div>
        </div></div>
    </div>",,,,,,,,,,,,,,,,,,,,,
,,,,,"html-keyboard-response",17,171122,"0.0-8.0-3.1-0.1","663a7dc83986ee24fb6ec0e6",,,,,,,"<div class=""gameHeader"">
        </div>
    <div class=""offerCard"" style=""height: auto; min-height: 90vh; overflow-y: auto; display: flex; justify-content: center;"">
        <div class=""bidOffer"" style=""overflow-y: auto; display: flex; flex-direction: column; justify-content: center;""><div class=""outcomeText""><p style=""font-family: 'Times New Roman', Times, serif; font-size: 18px;"">The next round will begin momentarily.</p>

    <p style=""font-family: 'Times New Roman', Times, serif; font-size: 18px;"">Please wait.</p></div></div>
    </div>",,,,,,,,,,,,,,,,,,,,,
,,,,,"html-keyboard-response",18,171615,"0.0-8.0-0.2","663a7dc83986ee24fb6ec0e6",,,492,"j",,,"<div class=""gameHeader"">
        </div>
    <div class=""offerCard"" style=""height: auto; min-height: 90vh; overflow-y: auto; display: flex; justify-content: center;"">
        <div class=""bidOffer"" style=""overflow-y: auto; display: flex; flex-direction: column; justify-content: center;"">
        <div class=""offers"">
        <div class=""textPrompt""><p style=""font-family: 'Times New Roman', Times, serif; font-size: 18px;"">How much money do you want
        <br>to give Partner?</p></div>
            <div class =""trustElements"">
            <div class=""player1Card""><p class=""player1Image""><img src=""src/images/gray_guy.png"" width=""150""></p>
                <div class=""player1Name""><p style=""font-family: 'Times New Roman', Times, serif; font-size: 18px;"">PaCo03</p></div>
            </div>

                <div class=""investmentCard"">
                    <div id=""leftBlock"" class=""leftBlock"">
                        <p style=""font-family: 'Times New Roman', Times, serif; font-size: 18px;"">$1</p>
                        <p style=""font-family: 'Times New Roman', Times, serif; font-size: 18px; margin-top: 5px; color: #666;"">Press ""F"" key</p>
                    </div>
                    <div id=""rightBlock"" class=""rightBlock"">
                        <p style=""font-family: 'Times New Roman', Times, serif; font-size: 18px;"">$10</p>
                        <p style=""font-family: 'Times New Roman', Times, serif; font-size: 18px; margin-top: 5px; color: #666;"">Press ""J"" key</p>
                    </div>
                </div>

            <div class=""player2Card""><p class=""player2Image""><img src=src/images/green_guy.png width=""150""></p>
                <div class=""player2Name""><p>Partner</p></div>
            </div>
            </div>
        </div>
        </div>
    </div>","practice_choice",10,2,3,1,4.6,0.10185972441161555,0.011934601719894569,,,,,,,,,,,,,
,,,,,"html-keyboard-response",19,173882,"0.0-8.0-1.2","663a7dc83986ee24fb6ec0e6",,,,,,,"<div class=""gameHeader"">
        </div>
    <div class=""offerCard"" style=""height: auto; min-height: 90vh; overflow-y: auto; display: flex; justify-content: center;"">
        <div class=""bidOffer"" style=""overflow-y: auto; display: flex; flex-direction: column; justify-content: center;""><div class=""outcomeText""><p style=""font-family: 'Times New Roman', Times, serif; font-size: 18px;"">You selected $10.00</p>

        <p style=""font-family: 'Times New Roman', Times, serif; font-size: 18px;""><br>Your partner is deciding how much to return.</p></div></div>
    </div>",,,,,,,,,,,,,,,,,,,,,
,,,,,"html-keyboard-response",20,177896,"0.0-8.0-2.2","663a7dc83986ee24fb6ec0e6",,,,,,,"<div class=""gameHeader"">
        </div>
    <div class=""offerCard"" style=""height: auto; min-height: 90vh; overflow-y: auto; display: flex; justify-content: center;"">
        <div class=""bidOffer"" style=""overflow-y: auto; display: flex; flex-direction: column; justify-content: center;""><div style=""display: flex; flex-direction: column; align-items: center; justify-content: center; width: 100%;"">
            <div class=""player2Card"" style=""margin-bottom: 20px;"">
                <p class=""player2Image""><img src=src/images/green_guy.png width=""150""></p>
                <div class=""player2Name""><p>Partner</p></div>
            </div>

            <div style=""background-color: #f8f9fa; border-radius: 10px; padding: 15px; text-align: center; max-width: 400px;"">
                <p style=""font-family: 'Times New Roman', Times, serif; font-size: 18px; margin: 0;"">Partner received <strong>$40.00</strong> and returned <strong>$4.60</strong> to you.</p>
            </div>
        </div></div>
    </div>",,,,,,,,,,,,,,,,,,,,,
,,,,,"html-keyboard-response",21,179985,"0.0-8.0-3.2-0.2","663a7dc83986ee24fb6ec0e6",,,,,,,"<div class=""gameHeader"">
        </div>
    <div class=""offerCard"" style=""height: auto; min-height: 90vh; overflow-y: auto; display: flex; justify-content: center;"">
        <div class=""bidOffer"" style=""overflow-y: auto; display: flex; flex-direction: column; justify-content: center;""><div class=""outcomeText""><p style=""font-family: 'Times New Roman', Times, serif; font-size: 18px;"">The next round will begin momentarily.</p>

    <p style=""font-family: 'Times New Roman', Times, serif; font-size: 18px;"">Please wait.</p></div></div>
    </div>",,,,,,,,,,,,,,,,,,,,,
,,,,,"html-keyboard-response",22,180691,"0.0-8.0-0.3","663a7dc83986ee24fb6ec0e6",,,705,"j",,,"<div class=""gameHeader"">
        </div>
    <div class=""offerCard"" style=""height: auto; min-height: 90vh; overflow-y: auto; display: flex; justify-content: center;"">
        <div class=""bidOffer"" style=""overflow-y: auto; display: flex; flex-direction: column; justify-content: center;"">
        <div class=""offers"">
        <div class=""textPrompt""><p style=""font-family: 'Times New Roman', Times, serif; font-size: 18px;"">How much money do you want
        <br>to give Partner?</p></div>
            <div class =""trustElements"">
            <div class=""player1Card""><p class=""player1Image""><img src=""src/images/gray_guy.png"" width=""150""></p>
                <div class=""player1Name""><p style=""font-family: 'Times New Roman', Times, serif; font-size: 18px;"">PaCo03</p></div>
            </div>

                <div class=""investmentCard"">
                    <div id=""leftBlock"" class=""leftBlock"">
                        <p style=""font-family: 'Times New Roman', Times, serif; font-size: 18px;"">$1</p>
                        <p style=""font-family: 'Times New Roman', Times, serif; font-size: 18px; margin-top: 5px; color: #666;"">Press ""F"" key</p>
                    </div>
                    <div id=""rightBlock"" class=""rightBlock"">
                        <p style=""font-family: 'Times New Roman', Times, serif; font-size: 18px;"">$10</p>
                        <p style=""font-family: 'Times New Roman', Times, serif; font-size: 18px; margin-top: 5px; color: #666;"">Press ""J"" key</p>
                    </div>
                </div>

            <div class=""player2Card""><p class=""player2Image""><img src=src/images/red_guy.png width=""150""></p>
                <div class=""player2Name""><p>Partner</p></div>
            </div>
            </div>
        </div>
        </div>
    </div>","practice_choice",10,3,4,2,4.5,0.1043123660364341,0.008498715554749606,,,,,,,,,,,,,
,,,,,"html-keyboard-response",23,184588,"0.0-8.0-1.3","663a7dc83986ee24fb6ec0e6",,,,,,,"<div class=""gameHeader"">
        </div>
    <div class=""offerCard"" style=""height: auto; min-height: 90vh; overflow-y: auto; display: flex; justify-content: center;"">
        <div class=""bidOffer"" style=""overflow-y: auto; display: flex; flex-direction: column; justify-content: center;""><div class=""outcomeText""><p style=""font-family: 'Times New Roman', Times, serif; font-size: 18px;"">You selected $10.00</p>

        <p style=""font-family: 'Times New Roman', Times, serif; font-size: 18px;""><br>Your partner is deciding how much to return.</p></div></div>
    </div>",,,,,,,,,,,,,,,,,,,,,
,,,,,"html-keyboard-response",24,188591,"0.0-8.0-2.3","663a7dc83986ee24fb6ec0e6",,,,,,,"<div class=""gameHeader"">
        </div>
    <div class=""offerCard"" style=""height: auto; min-height: 90vh; overflow-y: auto; display: flex; justify-content: center;"">
        <div class=""bidOffer"" style=""overflow-y: auto; display: flex; flex-direction: column; justify-content: center;""><div style=""display: flex; flex-direction: column; align-items: center; justify-content: center; width: 100%;"">
            <div class=""player2Card"" style=""margin-bottom: 20px;"">
                <p class=""player2Image""><img src=src/images/red_guy.png width=""150""></p>
                <div class=""player2Name""><p>Partner</p></div>
            </div>

            <div style=""background-color: #f8f9fa; border-radius: 10px; padding: 15px; text-align: center; max-width: 400px;"">
                <p style=""font-family: 'Times New Roman', Times, serif; font-size: 18px; margin: 0;"">Partner received <strong>$40.00</strong> and returned <strong>$4.50</strong> to you.</p>
            </div>
        </div></div>
    </div>",,,,,,,,,,,,,,,,,,,,,
,,,,,"html-keyboard-response",25,195698,"0.0-9.0","663a7dc83986ee24fb6ec0e6",,,7106," ",,,"<div class=""gameHeader"">
        </div>
    <div class=""offerCard"">
        <div class=""bidOffer"">
            <div class=""instructionsText"">
        <div class =""wrapTextBox"">
            <p><strong>Practice Complete!</strong></p>
            <p>You have finished the practice phase.</p>
            <p>The real experiment will now begin. Your decisions will now count toward your final payment.</p>
            <p>During the practice phase, four participants (<strong>KeJo06</strong>, <strong>BaSa02</strong>, <strong>GePl03</strong>, <strong>ClMa12</strong>) have been randomly matched as your partners for this experiment.</p>
            <p>Press the spacebar to start the experiment.</p>
        </div>
        </div>
        </div>
    </div>",,,,,,,,,,,,,,,,,,,,,
,,,,,"html-keyboard-response",26,197206,"0.0-10.0","663a7dc83986ee24fb6ec0e6",,,,,,,"<div class=""gameHeader"">
        </div>
    <div class=""offerCard"">
        <div class=""bidOffer"">
            <div class=""instructionsText"">
        <div class =""wrapTextBox"">
            <p style=""font-family: 'Times New Roman', Times, serif; font-size: 18px;""><strong>Preparing main experiment...</strong></p>
        </div>
        </div>
        </div>
    </div>",,,,,,,,,,,,,,,,,,,,,
,,,,,"html-keyboard-response",27,198249,"0.0-11.0-0.0-0.0-0.0","663a7dc83986ee24fb6ec0e6",,,1042,"j",,,"<div class=""gameHeader"">
        </div>
    <div class=""offerCard"" style=""height: auto; min-height: 90vh; overflow-y: auto; display: flex; justify-content: center;"">
        <div class=""bidOffer"" style=""overflow-y: auto; display: flex; flex-direction: column; justify-content: center;"">
        <div class=""offers"">
        <div class=""textPrompt""><p style=""font-family: 'Times New Roman', Times, serif; font-size: 18px;"">How much money do you want
        <br>to give GePl03?</p></div>
            <div class =""trustElements"">
            <div class=""player1Card""><p class=""player1Image""><img src=""src/images/gray_guy.png"" width=""150""></p>
                <div class=""player1Name""><p style=""font-family: 'Times New Roman', Times, serif; font-size: 18px;"">PaCo03</p></div>
            </div>

                <div class=""investmentCard"">
                    <div id=""leftBlock"" class=""leftBlock"">
                        <p style=""font-family: 'Times New Roman', Times, serif; font-size: 18px;"">$1</p>
                        <p style=""font-family: 'Times New Roman', Times, serif; font-size: 18px; margin-top: 5px; color: #666;"">Press ""F"" key</p>
                    </div>
                    <div id=""rightBlock"" class=""rightBlock"">
                        <p style=""font-family: 'Times New Roman', Times, serif; font-size: 18px;"">$10</p>
                        <p style=""font-family: 'Times New Roman', Times, serif; font-size: 18px; margin-top: 5px; color: #666;"">Press ""J"" key</p>
                    </div>
                </div>

            <div class=""player2Card""><p class=""player2Image""><img src=src/images/green_guy.png width=""150""></p>
                <div class=""player2Name""><p>GePl03</p></div>
            </div>
            </div>
        </div>
        </div>
    </div>","make_choice",10,2,1,1,0.6,0.004576260576335423,0.00945956998855639,,,,,,,,,,,,,
,,,,,"html-keyboard-response",28,201280,"0.0-11.0-0.0-0.0-1.0","663a7dc83986ee24fb6ec0e6",,,,,,,"<div class=""gameHeader"">
        </div>
    <div class=""offerCard"" style=""height: auto; min-height: 90vh; overflow-y: auto; display: flex; justify-content: center;"">
        <div class=""bidOffer"" style=""overflow-y: auto; display: flex; flex-direction: column; justify-content: center;""><div class=""outcomeText""><p style=""font-family: 'Times New Roman', Times, serif; font-size: 18px;"">You selected $10.00</p>

        <p style=""font-family: 'Times New Roman', Times, serif; font-size: 18px;""><br>Your partner is deciding how much to return.</p></div></div>
    </div>",,,,,,,,,,,,,,,,,,,,,
,,,,,"html-keyboard-response",29,205289,"0.0-11.0-0.0-0.0-2.0","663a7dc83986ee24fb6ec0e6",,,,,,,"<div class=""gameHeader"">
        </div>
    <div class=""offerCard"" style=""height: auto; min-height: 90vh; overflow-y: auto; display: flex; justify-content: center;"">
        <div class=""bidOffer"" style=""overflow-y: auto; display: flex; flex-direction: column; justify-content: center;""><div style=""display: flex; flex-direction: column; align-items: center; justify-content: center; width: 100%;"">
            <div class=""player2Card"" style=""margin-bottom: 20px;"">
                <p class=""player2Image""><img src=src/images/green_guy.png width=""150""></p>
                <div class=""player2Name""><p>GePl03</p></div>
            </div>

            <div style=""background-color: #f8f9fa; border-radius: 10px; padding: 15px; text-align: center; max-width: 400px;"">
                <p style=""font-family: 'Times New Roman', Times, serif; font-size: 18px; margin: 0;"">GePl03 received <strong>$40.00</strong> and returned <strong>$0.60</strong> to you.</p>
            </div>
        </div></div>
    </div>",,,,,,,,,,,,,,,,,,,,,
,,,,,"html-keyboard-response",30,208193,"0.0-11.0-0.0-0.0-3.0-0.0","663a7dc83986ee24fb6ec0e6",,,,,,,"<div class=""gameHeader"">
        </div>
    <div class=""offerCard"" style=""height: auto; min-height: 90vh; overflow-y: auto; display: flex; justify-content: center;"">
        <div class=""bidOffer"" style=""overflow-y: auto; display: flex; flex-direction: column; justify-content: center;""><div class=""outcomeText""><p style=""font-family: 'Times New Roman', Times, serif; font-size: 18px;"">The next round will begin momentarily.</p>

    <p style=""font-family: 'Times New Roman', Times, serif; font-size: 18px;"">Please wait.</p></div></div>
    </div>",,,,,,,,,,,,,,,,,,,,,
,,,,,"html-keyboard-response",31,209697,"0.0-11.0-0.0-1.0-0.0","663a7dc83986ee24fb6ec0e6",,,1503,"j",,,"<div class=""gameHeader"">
        </div>
    <div class=""offerCard"" style=""height: auto; min-height: 90vh; overflow-y: auto; display: flex; justify-content: center;"">
        <div class=""bidOffer"" style=""overflow-y: auto; display: flex; flex-direction: column; justify-content: center;"">
        <div class=""offers"">
        <div class=""textPrompt""><p style=""font-family: 'Times New Roman', Times, serif; font-size: 18px;"">How much money do you want
        <br>to give KeJo06?</p></div>
            <div class =""trustElements"">
            <div class=""player1Card""><p class=""player1Image""><img src=""src/images/gray_guy.png"" width=""150""></p>
                <div class=""player1Name""><p style=""font-family: 'Times New Roman', Times, serif; font-size: 18px;"">PaCo03</p></div>
            </div>

                <div class=""investmentCard"">
                    <div id=""leftBlock"" class=""leftBlock"">
                        <p style=""font-family: 'Times New Roman', Times, serif; font-size: 18px;"">$1</p>
                        <p style=""font-family: 'Times New Roman', Times, serif; font-size: 18px; margin-top: 5px; color: #666;"">Press ""F"" key</p>
                    </div>
                    <div id=""rightBlock"" class=""rightBlock"">
                        <p style=""font-family: 'Times New Roman', Times, serif; font-size: 18px;"">$10</p>
                        <p style=""font-family: 'Times New Roman', Times, serif; font-size: 18px; margin-top: 5px; color: #666;"">Press ""J"" key</p>
                    </div>
                </div>

            <div class=""player2Card""><p class=""player2Image""><img src=src/images/blue_guy.png width=""150""></p>
                <div class=""player2Name""><p>KeJo06</p></div>
            </div>
            </div>
        </div>
        </div>
    </div>","make_choice",10,0,2,1,4,0.09786471985739634,0.002412714992135203,,,,,,,,,,,,,
,,,,,"html-keyboard-response",32,213115,"0.0-11.0-0.0-1.0-1.0","663a7dc83986ee24fb6ec0e6",,,,,,,"<div class=""gameHeader"">
        </div>
    <div class=""offerCard"" style=""height: auto; min-height: 90vh; overflow-y: auto; display: flex; justify-content: center;"">
        <div class=""bidOffer"" style=""overflow-y: auto; display: flex; flex-direction: column; justify-content: center;""><div class=""outcomeText""><p style=""font-family: 'Times New Roman', Times, serif; font-size: 18px;"">You selected $10.00</p>

        <p style=""font-family: 'Times New Roman', Times, serif; font-size: 18px;""><br>Your partner is deciding how much to return.</p></div></div>
    </div>",,,,,,,,,,,,,,,,,,,,,
,,,,,"html-keyboard-response",33,217134,"0.0-11.0-0.0-1.0-2.0","663a7dc83986ee24fb6ec0e6",,,,,,,"<div class=""gameHeader"">
        </div>
    <div class=""offerCard"" style=""height: auto; min-height: 90vh; overflow-y: auto; display: flex; justify-content: center;"">
        <div class=""bidOffer"" style=""overflow-y: auto; display: flex; flex-direction: column; justify-content: center;""><div style=""display: flex; flex-direction: column; align-items: center; justify-content: center; width: 100%;"">
            <div class=""player2Card"" style=""margin-bottom: 20px;"">
                <p class=""player2Image""><img src=src/images/blue_guy.png width=""150""></p>
                <div class=""player2Name""><p>KeJo06</p></div>
            </div>

            <div style=""background-color: #f8f9fa; border-radius: 10px; padding: 15px; text-align: center; max-width: 400px;"">
                <p style=""font-family: 'Times New Roman', Times, serif; font-size: 18px; margin: 0;"">KeJo06 received <strong>$40.00</strong> and returned <strong>$4.00</strong> to you.</p>
            </div>
        </div></div>
    </div>",,,,,,,,,,,,,,,,,,,,,
,,,,,"html-keyboard-response",34,219656,"0.0-11.0-0.0-1.0-3.0-0.0","663a7dc83986ee24fb6ec0e6",,,,,,,"<div class=""gameHeader"">
        </div>
    <div class=""offerCard"" style=""height: auto; min-height: 90vh; overflow-y: auto; display: flex; justify-content: center;"">
        <div class=""bidOffer"" style=""overflow-y: auto; display: flex; flex-direction: column; justify-content: center;""><div class=""outcomeText""><p style=""font-family: 'Times New Roman', Times, serif; font-size: 18px;"">The next round will begin momentarily.</p>

    <p style=""font-family: 'Times New Roman', Times, serif; font-size: 18px;"">Please wait.</p></div></div>
    </div>",,,,,,,,,,,,,,,,,,,,,
,,,,,"html-keyboard-response",35,222468,"0.0-11.0-0.0-2.0-0.0","663a7dc83986ee24fb6ec0e6",,,2811,"f",,,"<div class=""gameHeader"">
        </div>
    <div class=""offerCard"" style=""height: auto; min-height: 90vh; overflow-y: auto; display: flex; justify-content: center;"">
        <div class=""bidOffer"" style=""overflow-y: auto; display: flex; flex-direction: column; justify-content: center;"">
        <div class=""offers"">
        <div class=""textPrompt""><p style=""font-family: 'Times New Roman', Times, serif; font-size: 18px;"">How much money do you want
        <br>to give BaSa02?</p></div>
            <div class =""trustElements"">
            <div class=""player1Card""><p class=""player1Image""><img src=""src/images/gray_guy.png"" width=""150""></p>
                <div class=""player1Name""><p style=""font-family: 'Times New Roman', Times, serif; font-size: 18px;"">PaCo03</p></div>
            </div>

                <div class=""investmentCard"">
                    <div id=""leftBlock"" class=""leftBlock"">
                        <p style=""font-family: 'Times New Roman', Times, serif; font-size: 18px;"">$1</p>
                        <p style=""font-family: 'Times New Roman', Times, serif; font-size: 18px; margin-top: 5px; color: #666;"">Press ""F"" key</p>
                    </div>
                    <div id=""rightBlock"" class=""rightBlock"">
                        <p style=""font-family: 'Times New Roman', Times, serif; font-size: 18px;"">$10</p>
                        <p style=""font-family: 'Times New Roman', Times, serif; font-size: 18px; margin-top: 5px; color: #666;"">Press ""J"" key</p>
                    </div>
                </div>

            <div class=""player2Card""><p class=""player2Image""><img src=src/images/yellow_guy.png width=""150""></p>
                <div class=""player2Name""><p>BaSa02</p></div>
            </div>
            </div>
        </div>
        </div>
    </div>","make_choice",1,1,3,1,0.4,0.09383048961769293,-0.0032289310032344015,,,,,,,,,,,,,
,,,,,"html-keyboard-response",36,226378,"0.0-11.0-0.0-2.0-1.0","663a7dc83986ee24fb6ec0e6",,,,,,,"<div class=""gameHeader"">
        </div>
    <div class=""offerCard"" style=""height: auto; min-height: 90vh; overflow-y: auto; display: flex; justify-content: center;"">
        <div class=""bidOffer"" style=""overflow-y: auto; display: flex; flex-direction: column; justify-content: center;""><div class=""outcomeText""><p style=""font-family: 'Times New Roman', Times, serif; font-size: 18px;"">You selected $1.00</p>

        <p style=""font-family: 'Times New Roman', Times, serif; font-size: 18px;""><br>Your partner is deciding how much to return.</p></div></div>
    </div>",,,,,,,,,,,,,,,,,,,,,
,,,,,"html-keyboard-response",37,230387,"0.0-11.0-0.0-2.0-2.0","663a7dc83986ee24fb6ec0e6",,,,,,,"<div class=""gameHeader"">
        </div>
    <div class=""offerCard"" style=""height: auto; min-height: 90vh; overflow-y: auto; display: flex; justify-content: center;"">
        <div class=""bidOffer"" style=""overflow-y: auto; display: flex; flex-direction: column; justify-content: center;""><div style=""display: flex; flex-direction: column; align-items: center; justify-content: center; width: 100%;"">
            <div class=""player2Card"" style=""margin-bottom: 20px;"">
                <p class=""player2Image""><img src=src/images/yellow_guy.png width=""150""></p>
                <div class=""player2Name""><p>BaSa02</p></div>
            </div>

            <div style=""background-color: #f8f9fa; border-radius: 10px; padding: 15px; text-align: center; max-width: 400px;"">
                <p style=""font-family: 'Times New Roman', Times, serif; font-size: 18px; margin: 0;"">BaSa02 received <strong>$4.00</strong> and returned <strong>$0.40</strong> to you.</p>
            </div>
        </div></div>
    </div>",,,,,,,,,,,,,,,,,,,,,
,,,,,"html-keyboard-response",38,232868,"0.0-11.0-0.0-2.0-3.0-0.0","663a7dc83986ee24fb6ec0e6",,,,,,,"<div class=""gameHeader"">
        </div>
    <div class=""offerCard"" style=""height: auto; min-height: 90vh; overflow-y: auto; display: flex; justify-content: center;"">
        <div class=""bidOffer"" style=""overflow-y: auto; display: flex; flex-direction: column; justify-content: center;""><div class=""outcomeText""><p style=""font-family: 'Times New Roman', Times, serif; font-size: 18px;"">The next round will begin momentarily.</p>

    <p style=""font-family: 'Times New Roman', Times, serif; font-size: 18px;"">Please wait.</p></div></div>
    </div>",,,,,,,,,,,,,,,,,,,,,
,,,,,"html-keyboard-response",39,233448,"0.0-11.0-0.0-3.0-0.0","663a7dc83986ee24fb6ec0e6",,,579,"j",,,"<div class=""gameHeader"">
        </div>
    <div class=""offerCard"" style=""height: auto; min-height: 90vh; overflow-y: auto; display: flex; justify-content: center;"">
        <div class=""bidOffer"" style=""overflow-y: auto; display: flex; flex-direction: column; justify-content: center;"">
        <div class=""offers"">
        <div class=""textPrompt""><p style=""font-family: 'Times New Roman', Times, serif; font-size: 18px;"">How much money do you want
        <br>to give ClMa12?</p></div>
            <div class =""trustElements"">
            <div class=""player1Card""><p class=""player1Image""><img src=""src/images/gray_guy.png"" width=""150""></p>
                <div class=""player1Name""><p style=""font-family: 'Times New Roman', Times, serif; font-size: 18px;"">PaCo03</p></div>
            </div>

                <div class=""investmentCard"">
                    <div id=""leftBlock"" class=""leftBlock"">
                        <p style=""font-family: 'Times New Roman', Times, serif; font-size: 18px;"">$1</p>
                        <p style=""font-family: 'Times New Roman', Times, serif; font-size: 18px; margin-top: 5px; color: #666;"">Press ""F"" key</p>
                    </div>
                    <div id=""rightBlock"" class=""rightBlock"">
                        <p style=""font-family: 'Times New Roman', Times, serif; font-size: 18px;"">$10</p>
                        <p style=""font-family: 'Times New Roman', Times, serif; font-size: 18px; margin-top: 5px; color: #666;"">Press ""J"" key</p>
                    </div>
                </div>

            <div class=""player2Card""><p class=""player2Image""><img src=src/images/red_guy.png width=""150""></p>
                <div class=""player2Name""><p>ClMa12</p></div>
            </div>
            </div>
        </div>
        </div>
    </div>","make_choice",10,3,4,2,1.9,0.028809149980239628,0.01904454094594773,,,,,,,,,,,,,
,,,,,"html-keyboard-response",40,236726,"0.0-11.0-0.0-3.0-1.0","663a7dc83986ee24fb6ec0e6",,,,,,,"<div class=""gameHeader"">
        </div>
    <div class=""offerCard"" style=""height: auto; min-height: 90vh; overflow-y: auto; display: flex; justify-content: center;"">
        <div class=""bidOffer"" style=""overflow-y: auto; display: flex; flex-direction: column; justify-content: center;""><div class=""outcomeText""><p style=""font-family: 'Times New Roman', Times, serif; font-size: 18px;"">You selected $10.00</p>

        <p style=""font-family: 'Times New Roman', Times, serif; font-size: 18px;""><br>Your partner is deciding how much to return.</p></div></div>
    </div>",,,,,,,,,,,,,,,,,,,,,
,,,,,"html-keyboard-response",41,240733,"0.0-11.0-0.0-3.0-2.0","663a7dc83986ee24fb6ec0e6",,,,,,,"<div class=""gameHeader"">
        </div>
    <div class=""offerCard"" style=""height: auto; min-height: 90vh; overflow-y: auto; display: flex; justify-content: center;"">
        <div class=""bidOffer"" style=""overflow-y: auto; display: flex; flex-direction: column; justify-content: center;""><div style=""display: flex; flex-direction: column; align-items: center; justify-content: center; width: 100%;"">
            <div class=""player2Card"" style=""margin-bottom: 20px;"">
                <p class=""player2Image""><img src=src/images/red_guy.png width=""150""></p>
                <div class=""player2Name""><p>ClMa12</p></div>
            </div>

            <div style=""background-color: #f8f9fa; border-radius: 10px; padding: 15px; text-align: center; max-width: 400px;"">
                <p style=""font-family: 'Times New Roman', Times, serif; font-size: 18px; margin: 0;"">ClMa12 received <strong>$40.00</strong> and returned <strong>$1.90</strong> to you.</p>
            </div>
        </div></div>
    </div>",,,,,,,,,,,,,,,,,,,,,
,,,,,"html-keyboard-response",42,243936,"0.0-11.0-0.0-3.0-3.0-0.0","663a7dc83986ee24fb6ec0e6",,,,,,,"<div class=""gameHeader"">
        </div>
    <div class=""offerCard"" style=""height: auto; min-height: 90vh; overflow-y: auto; display: flex; justify-content: center;"">
        <div class=""bidOffer"" style=""overflow-y: auto; display: flex; flex-direction: column; justify-content: center;""><div class=""outcomeText""><p style=""font-family: 'Times New Roman', Times, serif; font-size: 18px;"">The next round will begin momentarily.</p>

    <p style=""font-family: 'Times New Roman', Times, serif; font-size: 18px;"">Please wait.</p></div></div>
    </div>",,,,,,,,,,,,,,,,,,,,,
,,,,,"html-keyboard-response",43,244554,"0.0-11.0-0.0-4.0-0.0","663a7dc83986ee24fb6ec0e6",,,617,"f",,,"<div class=""gameHeader"">
        </div>
    <div class=""offerCard"" style=""height: auto; min-height: 90vh; overflow-y: auto; display: flex; justify-content: center;"">
        <div class=""bidOffer"" style=""overflow-y: auto; display: flex; flex-direction: column; justify-content: center;"">
        <div class=""offers"">
        <div class=""textPrompt""><p style=""font-family: 'Times New Roman', Times, serif; font-size: 18px;"">How much money do you want
        <br>to give ClMa12?</p></div>
            <div class =""trustElements"">
            <div class=""player1Card""><p class=""player1Image""><img src=""src/images/gray_guy.png"" width=""150""></p>
                <div class=""player1Name""><p style=""font-family: 'Times New Roman', Times, serif; font-size: 18px;"">PaCo03</p></div>
            </div>

                <div class=""investmentCard"">
                    <div id=""leftBlock"" class=""leftBlock"">
                        <p style=""font-family: 'Times New Roman', Times, serif; font-size: 18px;"">$1</p>
                        <p style=""font-family: 'Times New Roman', Times, serif; font-size: 18px; margin-top: 5px; color: #666;"">Press ""F"" key</p>
                    </div>
                    <div id=""rightBlock"" class=""rightBlock"">
                        <p style=""font-family: 'Times New Roman', Times, serif; font-size: 18px;"">$10</p>
                        <p style=""font-family: 'Times New Roman', Times, serif; font-size: 18px; margin-top: 5px; color: #666;"">Press ""J"" key</p>
                    </div>
                </div>

            <div class=""player2Card""><p class=""player2Image""><img src=src/images/red_guy.png width=""150""></p>
                <div class=""player2Name""><p>ClMa12</p></div>
            </div>
            </div>
        </div>
        </div>
    </div>","make_choice",1,3,5,2,0,0,0.004789323128077617,,,,,,,,,,,,,
,,,,,"html-keyboard-response",44,247658,"0.0-11.0-0.0-4.0-1.0","663a7dc83986ee24fb6ec0e6",,,,,,,"<div class=""gameHeader"">
        </div>
    <div class=""offerCard"" style=""height: auto; min-height: 90vh; overflow-y: auto; display: flex; justify-content: center;"">
        <div class=""bidOffer"" style=""overflow-y: auto; display: flex; flex-direction: column; justify-content: center;""><div class=""outcomeText""><p style=""font-family: 'Times New Roman', Times, serif; font-size: 18px;"">You selected $1.00</p>

        <p style=""font-family: 'Times New Roman', Times, serif; font-size: 18px;""><br>Your partner is deciding how much to return.</p></div></div>
    </div>",,,,,,,,,,,,,,,,,,,,,
,,,,,"html-keyboard-response",45,251661,"0.0-11.0-0.0-4.0-2.0","663a7dc83986ee24fb6ec0e6",,,,,,,"<div class=""gameHeader"">
        </div>
    <div class=""offerCard"" style=""height: auto; min-height: 90vh; overflow-y: auto; display: flex; justify-content: center;"">
        <div class=""bidOffer"" style=""overflow-y: auto; display: flex; flex-direction: column; justify-content: center;""><div style=""display: flex; flex-direction: column; align-items: center; justify-content: center; width: 100%;"">
            <div class=""player2Card"" style=""margin-bottom: 20px;"">
                <p class=""player2Image""><img src=src/images/red_guy.png width=""150""></p>
                <div class=""player2Name""><p>ClMa12</p></div>
            </div>

            <div style=""background-color: #f8f9fa; border-radius: 10px; padding: 15px; text-align: center; max-width: 400px;"">
                <p style=""font-family: 'Times New Roman', Times, serif; font-size: 18px; margin: 0;"">ClMa12 received <strong>$4.00</strong> and returned <strong>$0.00</strong> to you.</p>
            </div>
        </div></div>
    </div>",,,,,,,,,,,,,,,,,,,,,
,,,,,"html-keyboard-response",46,255088,"0.0-11.0-0.0-4.0-3.0-0.0","663a7dc83986ee24fb6ec0e6",,,,,,,"<div class=""gameHeader"">
        </div>
    <div class=""offerCard"" style=""height: auto; min-height: 90vh; overflow-y: auto; display: flex; justify-content: center;"">
        <div class=""bidOffer"" style=""overflow-y: auto; display: flex; flex-direction: column; justify-content: center;""><div class=""outcomeText""><p style=""font-family: 'Times New Roman', Times, serif; font-size: 18px;"">The next round will begin momentarily.</p>

    <p style=""font-family: 'Times New Roman', Times, serif; font-size: 18px;"">Please wait.</p></div></div>
    </div>",,,,,,,,,,,,,,,,,,,,,
,,,,,"html-keyboard-response",47,255706,"0.0-11.0-0.0-5.0-0.0","663a7dc83986ee24fb6ec0e6",,,617,"j",,,"<div class=""gameHeader"">
        </div>
    <div class=""offerCard"" style=""height: auto; min-height: 90vh; overflow-y: auto; display: flex; justify-content: center;"">
        <div class=""bidOffer"" style=""overflow-y: auto; display: flex; flex-direction: column; justify-content: center;"">
        <div class=""offers"">
        <div class=""textPrompt""><p style=""font-family: 'Times New Roman', Times, serif; font-size: 18px;"">How much money do you want
        <br>to give GePl03?</p></div>
            <div class =""trustElements"">
            <div class=""player1Card""><p class=""player1Image""><img src=""src/images/gray_guy.png"" width=""150""></p>
                <div class=""player1Name""><p style=""font-family: 'Times New Roman', Times, serif; font-size: 18px;"">PaCo03</p></div>
            </div>

                <div class=""investmentCard"">
                    <div id=""leftBlock"" class=""leftBlock"">
                        <p style=""font-family: 'Times New Roman', Times, serif; font-size: 18px;"">$1</p>
                        <p style=""font-family: 'Times New Roman', Times, serif; font-size: 18px; margin-top: 5px; color: #666;"">Press ""F"" key</p>
                    </div>
                    <div id=""rightBlock"" class=""rightBlock"">
                        <p style=""font-family: 'Times New Roman', Times, serif; font-size: 18px;"">$10</p>
                        <p style=""font-family: 'Times New Roman', Times, serif; font-size: 18px; margin-top: 5px; color: #666;"">Press ""J"" key</p>
                    </div>
                </div>

            <div class=""player2Card""><p class=""player2Image""><img src=src/images/green_guy.png width=""150""></p>
                <div class=""player2Name""><p>GePl03</p></div>
            </div>
            </div>
        </div>
        </div>
    </div>","make_choice",10,2,6,2,0.1,0.0007452047971024437,0.0025909898466063013,,,,,,,,,,,,,
,,,,,"html-keyboard-response",48,258207,"0.0-11.0-0.0-5.0-1.0","663a7dc83986ee24fb6ec0e6",,,,,,,"<div class=""gameHeader"">
        </div>
    <div class=""offerCard"" style=""height: auto; min-height: 90vh; overflow-y: auto; display: flex; justify-content: center;"">
        <div class=""bidOffer"" style=""overflow-y: auto; display: flex; flex-direction: column; justify-content: center;""><div class=""outcomeText""><p style=""font-family: 'Times New Roman', Times, serif; font-size: 18px;"">You selected $10.00</p>

        <p style=""font-family: 'Times New Roman', Times, serif; font-size: 18px;""><br>Your partner is deciding how much to return.</p></div></div>
    </div>",,,,,,,,,,,,,,,,,,,,,
,,,,,"html-keyboard-response",49,262219,"0.0-11.0-0.0-5.0-2.0","663a7dc83986ee24fb6ec0e6",,,,,,,"<div class=""gameHeader"">
        </div>
    <div class=""offerCard"" style=""height: auto; min-height: 90vh; overflow-y: auto; display: flex; justify-content: center;"">
        <div class=""bidOffer"" style=""overflow-y: auto; display: flex; flex-direction: column; justify-content: center;""><div style=""display: flex; flex-direction: column; align-items: center; justify-content: center; width: 100%;"">
            <div class=""player2Card"" style=""margin-bottom: 20px;"">
                <p class=""player2Image""><img src=src/images/green_guy.png width=""150""></p>
                <div class=""player2Name""><p>GePl03</p></div>
            </div>

            <div style=""background-color: #f8f9fa; border-radius: 10px; padding: 15px; text-align: center; max-width: 400px;"">
                <p style=""font-family: 'Times New Roman', Times, serif; font-size: 18px; margin: 0;"">GePl03 received <strong>$40.00</strong> and returned <strong>$0.10</strong> to you.</p>
            </div>
        </div></div>
    </div>",,,,,,,,,,,,,,,,,,,,,
,,,,,"html-keyboard-response",50,265540,"0.0-11.0-0.0-5.0-3.0-0.0","663a7dc83986ee24fb6ec0e6",,,,,,,"<div class=""gameHeader"">
        </div>
    <div class=""offerCard"" style=""height: auto; min-height: 90vh; overflow-y: auto; display: flex; justify-content: center;"">
        <div class=""bidOffer"" style=""overflow-y: auto; display: flex; flex-direction: column; justify-content: center;""><div class=""outcomeText""><p style=""font-family: 'Times New Roman', Times, serif; font-size: 18px;"">The next round will begin momentarily.</p>

    <p style=""font-family: 'Times New Roman', Times, serif; font-size: 18px;"">Please wait.</p></div></div>
    </div>",,,,,,,,,,,,,,,,,,,,,
,,,,,"html-keyboard-response",51,266000,"0.0-11.0-0.0-6.0-0.0","663a7dc83986ee24fb6ec0e6",,,459,"j",,,"<div class=""gameHeader"">
        </div>
    <div class=""offerCard"" style=""height: auto; min-height: 90vh; overflow-y: auto; display: flex; justify-content: center;"">
        <div class=""bidOffer"" style=""overflow-y: auto; display: flex; flex-direction: column; justify-content: center;"">
        <div class=""offers"">
        <div class=""textPrompt""><p style=""font-family: 'Times New Roman', Times, serif; font-size: 18px;"">How much money do you want
        <br>to give BaSa02?</p></div>
            <div class =""trustElements"">
            <div class=""player1Card""><p class=""player1Image""><img src=""src/images/gray_guy.png"" width=""150""></p>
                <div class=""player1Name""><p style=""font-family: 'Times New Roman', Times, serif; font-size: 18px;"">PaCo03</p></div>
            </div>

                <div class=""investmentCard"">
                    <div id=""leftBlock"" class=""leftBlock"">
                        <p style=""font-family: 'Times New Roman', Times, serif; font-size: 18px;"">$1</p>
                        <p style=""font-family: 'Times New Roman', Times, serif; font-size: 18px; margin-top: 5px; color: #666;"">Press ""F"" key</p>
                    </div>
                    <div id=""rightBlock"" class=""rightBlock"">
                        <p style=""font-family: 'Times New Roman', Times, serif; font-size: 18px;"">$10</p>
                        <p style=""font-family: 'Times New Roman', Times, serif; font-size: 18px; margin-top: 5px; color: #666;"">Press ""J"" key</p>
                    </div>
                </div>

            <div class=""player2Card""><p class=""player2Image""><img src=src/images/yellow_guy.png width=""150""></p>
                <div class=""player2Name""><p>BaSa02</p></div>
            </div>
            </div>
        </div>
        </div>
    </div>","make_choice",10,1,7,3,4,0.10011122689017965,0.0010939672656839119,,,,,,,,,,,,,
,,,,,"html-keyboard-response",52,268028,"0.0-11.0-0.0-6.0-1.0","663a7dc83986ee24fb6ec0e6",,,,,,,"<div class=""gameHeader"">
        </div>
    <div class=""offerCard"" style=""height: auto; min-height: 90vh; overflow-y: auto; display: flex; justify-content: center;"">
        <div class=""bidOffer"" style=""overflow-y: auto; display: flex; flex-direction: column; justify-content: center;""><div class=""outcomeText""><p style=""font-family: 'Times New Roman', Times, serif; font-size: 18px;"">You selected $10.00</p>

        <p style=""font-family: 'Times New Roman', Times, serif; font-size: 18px;""><br>Your partner is deciding how much to return.</p></div></div>
    </div>",,,,,,,,,,,,,,,,,,,,,
,,,,,"html-keyboard-response",53,272030,"0.0-11.0-0.0-6.0-2.0","663a7dc83986ee24fb6ec0e6",,,,,,,"<div class=""gameHeader"">
        </div>
    <div class=""offerCard"" style=""height: auto; min-height: 90vh; overflow-y: auto; display: flex; justify-content: center;"">
        <div class=""bidOffer"" style=""overflow-y: auto; display: flex; flex-direction: column; justify-content: center;""><div style=""display: flex; flex-direction: column; align-items: center; justify-content: center; width: 100%;"">
            <div class=""player2Card"" style=""margin-bottom: 20px;"">
                <p class=""player2Image""><img src=src/images/yellow_guy.png width=""150""></p>
                <div class=""player2Name""><p>BaSa02</p></div>
            </div>

            <div style=""background-color: #f8f9fa; border-radius: 10px; padding: 15px; text-align: center; max-width: 400px;"">
                <p style=""font-family: 'Times New Roman', Times, serif; font-size: 18px; margin: 0;"">BaSa02 received <strong>$40.00</strong> and returned <strong>$4.00</strong> to you.</p>
            </div>
        </div></div>
    </div>",,,,,,,,,,,,,,,,,,,,,
,,,,,"html-keyboard-response",54,275773,"0.0-11.0-0.0-6.0-3.0-0.0","663a7dc83986ee24fb6ec0e6",,,,,,,"<div class=""gameHeader"">
        </div>
    <div class=""offerCard"" style=""height: auto; min-height: 90vh; overflow-y: auto; display: flex; justify-content: center;"">
        <div class=""bidOffer"" style=""overflow-y: auto; display: flex; flex-direction: column; justify-content: center;""><div class=""outcomeText""><p style=""font-family: 'Times New Roman', Times, serif; font-size: 18px;"">The next round will begin momentarily.</p>

    <p style=""font-family: 'Times New Roman', Times, serif; font-size: 18px;"">Please wait.</p></div></div>
    </div>",,,,,,,,,,,,,,,,,,,,,
,,,,,"html-keyboard-response",55,276490,"0.0-11.0-0.0-7.0-0.0","663a7dc83986ee24fb6ec0e6",,,716,"j",,,"<div class=""gameHeader"">
        </div>
    <div class=""offerCard"" style=""height: auto; min-height: 90vh; overflow-y: auto; display: flex; justify-content: center;"">
        <div class=""bidOffer"" style=""overflow-y: auto; display: flex; flex-direction: column; justify-content: center;"">
        <div class=""offers"">
        <div class=""textPrompt""><p style=""font-family: 'Times New Roman', Times, serif; font-size: 18px;"">How much money do you want
        <br>to give KeJo06?</p></div>
            <div class =""trustElements"">
            <div class=""player1Card""><p class=""player1Image""><img src=""src/images/gray_guy.png"" width=""150""></p>
                <div class=""player1Name""><p style=""font-family: 'Times New Roman', Times, serif; font-size: 18px;"">PaCo03</p></div>
            </div>

                <div class=""investmentCard"">
                    <div id=""leftBlock"" class=""leftBlock"">
                        <p style=""font-family: 'Times New Roman', Times, serif; font-size: 18px;"">$1</p>
                        <p style=""font-family: 'Times New Roman', Times, serif; font-size: 18px; margin-top: 5px; color: #666;"">Press ""F"" key</p>
                    </div>
                    <div id=""rightBlock"" class=""rightBlock"">
                        <p style=""font-family: 'Times New Roman', Times, serif; font-size: 18px;"">$10</p>
                        <p style=""font-family: 'Times New Roman', Times, serif; font-size: 18px; margin-top: 5px; color: #666;"">Press ""J"" key</p>
                    </div>
                </div>

            <div class=""player2Card""><p class=""player2Image""><img src=src/images/blue_guy.png width=""150""></p>
                <div class=""player2Name""><p>KeJo06</p></div>
            </div>
            </div>
        </div>
        </div>
    </div>","make_choice",10,0,8,3,3.9,0.09370716870400383,0.005023173301001277,,,,,,,,,,,,,
,,,,,"html-keyboard-response",56,278844,"0.0-11.0-0.0-7.0-1.0","663a7dc83986ee24fb6ec0e6",,,,,,,"<div class=""gameHeader"">
        </div>
    <div class=""offerCard"" style=""height: auto; min-height: 90vh; overflow-y: auto; display: flex; justify-content: center;"">
        <div class=""bidOffer"" style=""overflow-y: auto; display: flex; flex-direction: column; justify-content: center;""><div class=""outcomeText""><p style=""font-family: 'Times New Roman', Times, serif; font-size: 18px;"">You selected $10.00</p>

        <p style=""font-family: 'Times New Roman', Times, serif; font-size: 18px;""><br>Your partner is deciding how much to return.</p></div></div>
    </div>",,,,,,,,,,,,,,,,,,,,,
,,,,,"html-keyboard-response",57,282859,"0.0-11.0-0.0-7.0-2.0","663a7dc83986ee24fb6ec0e6",,,,,,,"<div class=""gameHeader"">
        </div>
    <div class=""offerCard"" style=""height: auto; min-height: 90vh; overflow-y: auto; display: flex; justify-content: center;"">
        <div class=""bidOffer"" style=""overflow-y: auto; display: flex; flex-direction: column; justify-content: center;""><div style=""display: flex; flex-direction: column; align-items: center; justify-content: center; width: 100%;"">
            <div class=""player2Card"" style=""margin-bottom: 20px;"">
                <p class=""player2Image""><img src=src/images/blue_guy.png width=""150""></p>
                <div class=""player2Name""><p>KeJo06</p></div>
            </div>

            <div style=""background-color: #f8f9fa; border-radius: 10px; padding: 15px; text-align: center; max-width: 400px;"">
                <p style=""font-family: 'Times New Roman', Times, serif; font-size: 18px; margin: 0;"">KeJo06 received <strong>$40.00</strong> and returned <strong>$3.90</strong> to you.</p>
            </div>
        </div></div>
    </div>",,,,,,,,,,,,,,,,,,,,,
,,,,,"html-keyboard-response",58,285918,"0.0-11.0-0.0-7.0-3.0-0.0","663a7dc83986ee24fb6ec0e6",,,,,,,"<div class=""gameHeader"">
        </div>
    <div class=""offerCard"" style=""height: auto; min-height: 90vh; overflow-y: auto; display: flex; justify-content: center;"">
        <div class=""bidOffer"" style=""overflow-y: auto; display: flex; flex-direction: column; justify-content: center;""><div class=""outcomeText""><p style=""font-family: 'Times New Roman', Times, serif; font-size: 18px;"">The next round will begin momentarily.</p>

    <p style=""font-family: 'Times New Roman', Times, serif; font-size: 18px;"">Please wait.</p></div></div>
    </div>",,,,,,,,,,,,,,,,,,,,,
,,,,,"html-keyboard-response",59,288017,"0.0-11.0-0.0-8.0-0.0","663a7dc83986ee24fb6ec0e6",,,2098,"f",,,"<div class=""gameHeader"">
        </div>
    <div class=""offerCard"" style=""height: auto; min-height: 90vh; overflow-y: auto; display: flex; justify-content: center;"">
        <div class=""bidOffer"" style=""overflow-y: auto; display: flex; flex-direction: column; justify-content: center;"">
        <div class=""offers"">
        <div class=""textPrompt""><p style=""font-family: 'Times New Roman', Times, serif; font-size: 18px;"">How much money do you want
        <br>to give ClMa12?</p></div>
            <div class =""trustElements"">
            <div class=""player1Card""><p class=""player1Image""><img src=""src/images/gray_guy.png"" width=""150""></p>
                <div class=""player1Name""><p style=""font-family: 'Times New Roman', Times, serif; font-size: 18px;"">PaCo03</p></div>
            </div>

                <div class=""investmentCard"">
                    <div id=""leftBlock"" class=""leftBlock"">
                        <p style=""font-family: 'Times New Roman', Times, serif; font-size: 18px;"">$1</p>
                        <p style=""font-family: 'Times New Roman', Times, serif; font-size: 18px; margin-top: 5px; color: #666;"">Press ""F"" key</p>
                    </div>
                    <div id=""rightBlock"" class=""rightBlock"">
                        <p style=""font-family: 'Times New Roman', Times, serif; font-size: 18px;"">$10</p>
                        <p style=""font-family: 'Times New Roman', Times, serif; font-size: 18px; margin-top: 5px; color: #666;"">Press ""J"" key</p>
                    </div>
                </div>

            <div class=""player2Card""><p class=""player2Image""><img src=src/images/red_guy.png width=""150""></p>
                <div class=""player2Name""><p>ClMa12</p></div>
            </div>
            </div>
        </div>
        </div>
    </div>","make_choice",1,3,9,3,0,0.012935702567099841,-0.009137460019369112,,,,,,,,,,,,,
,,,,,"html-keyboard-response",60,291719,"0.0-11.0-0.0-8.0-1.0","663a7dc83986ee24fb6ec0e6",,,,,,,"<div class=""gameHeader"">
        </div>
    <div class=""offerCard"" style=""height: auto; min-height: 90vh; overflow-y: auto; display: flex; justify-content: center;"">
        <div class=""bidOffer"" style=""overflow-y: auto; display: flex; flex-direction: column; justify-content: center;""><div class=""outcomeText""><p style=""font-family: 'Times New Roman', Times, serif; font-size: 18px;"">You selected $1.00</p>

        <p style=""font-family: 'Times New Roman', Times, serif; font-size: 18px;""><br>Your partner is deciding how much to return.</p></div></div>
    </div>",,,,,,,,,,,,,,,,,,,,,
,,,,,"html-keyboard-response",61,295723,"0.0-11.0-0.0-8.0-2.0","663a7dc83986ee24fb6ec0e6",,,,,,,"<div class=""gameHeader"">
        </div>
    <div class=""offerCard"" style=""height: auto; min-height: 90vh; overflow-y: auto; display: flex; justify-content: center;"">
        <div class=""bidOffer"" style=""overflow-y: auto; display: flex; flex-direction: column; justify-content: center;""><div style=""display: flex; flex-direction: column; align-items: center; justify-content: center; width: 100%;"">
            <div class=""player2Card"" style=""margin-bottom: 20px;"">
                <p class=""player2Image""><img src=src/images/red_guy.png width=""150""></p>
                <div class=""player2Name""><p>ClMa12</p></div>
            </div>

            <div style=""background-color: #f8f9fa; border-radius: 10px; padding: 15px; text-align: center; max-width: 400px;"">
                <p style=""font-family: 'Times New Roman', Times, serif; font-size: 18px; margin: 0;"">ClMa12 received <strong>$4.00</strong> and returned <strong>$0.00</strong> to you.</p>
            </div>
        </div></div>
    </div>",,,,,,,,,,,,,,,,,,,,,
,,,,,"html-keyboard-response",62,298342,"0.0-11.0-0.0-8.0-3.0-0.0","663a7dc83986ee24fb6ec0e6",,,,,,,"<div class=""gameHeader"">
        </div>
    <div class=""offerCard"" style=""height: auto; min-height: 90vh; overflow-y: auto; display: flex; justify-content: center;"">
        <div class=""bidOffer"" style=""overflow-y: auto; display: flex; flex-direction: column; justify-content: center;""><div class=""outcomeText""><p style=""font-family: 'Times New Roman', Times, serif; font-size: 18px;"">The next round will begin momentarily.</p>

    <p style=""font-family: 'Times New Roman', Times, serif; font-size: 18px;"">Please wait.</p></div></div>
    </div>",,,,,,,,,,,,,,,,,,,,,
,,,,,"html-keyboard-response",63,300645,"0.0-11.0-0.0-9.0-0.0","663a7dc83986ee24fb6ec0e6",,,2301,"f",,,"<div class=""gameHeader"">
        </div>
    <div class=""offerCard"" style=""height: auto; min-height: 90vh; overflow-y: auto; display: flex; justify-content: center;"">
        <div class=""bidOffer"" style=""overflow-y: auto; display: flex; flex-direction: column; justify-content: center;"">
        <div class=""offers"">
        <div class=""textPrompt""><p style=""font-family: 'Times New Roman', Times, serif; font-size: 18px;"">How much money do you want
        <br>to give GePl03?</p></div>
            <div class =""trustElements"">
            <div class=""player1Card""><p class=""player1Image""><img src=""src/images/gray_guy.png"" width=""150""></p>
                <div class=""player1Name""><p style=""font-family: 'Times New Roman', Times, serif; font-size: 18px;"">PaCo03</p></div>
            </div>

                <div class=""investmentCard"">
                    <div id=""leftBlock"" class=""leftBlock"">
                        <p style=""font-family: 'Times New Roman', Times, serif; font-size: 18px;"">$1</p>
                        <p style=""font-family: 'Times New Roman', Times, serif; font-size: 18px; margin-top: 5px; color: #666;"">Press ""F"" key</p>
                    </div>
                    <div id=""rightBlock"" class=""rightBlock"">
                        <p style=""font-family: 'Times New Roman', Times, serif; font-size: 18px;"">$10</p>
                        <p style=""font-family: 'Times New Roman', Times, serif; font-size: 18px; margin-top: 5px; color: #666;"">Press ""J"" key</p>
                    </div>
                </div>

            <div class=""player2Card""><p class=""player2Image""><img src=src/images/green_guy.png width=""150""></p>
                <div class=""player2Name""><p>GePl03</p></div>
            </div>
            </div>
        </div>
        </div>
    </div>","make_choice",1,2,10,4,0,0.015414336247329118,-0.0054386522446527264,,,,,,,,,,,,,
,,,,,"html-keyboard-response",64,304024,"0.0-11.0-0.0-9.0-1.0","663a7dc83986ee24fb6ec0e6",,,,,,,"<div class=""gameHeader"">
        </div>
    <div class=""offerCard"" style=""height: auto; min-height: 90vh; overflow-y: auto; display: flex; justify-content: center;"">
        <div class=""bidOffer"" style=""overflow-y: auto; display: flex; flex-direction: column; justify-content: center;""><div class=""outcomeText""><p style=""font-family: 'Times New Roman', Times, serif; font-size: 18px;"">You selected $1.00</p>

        <p style=""font-family: 'Times New Roman', Times, serif; font-size: 18px;""><br>Your partner is deciding how much to return.</p></div></div>
    </div>",,,,,,,,,,,,,,,,,,,,,
,,,,,"html-keyboard-response",65,308041,"0.0-11.0-0.0-9.0-2.0","663a7dc83986ee24fb6ec0e6",,,,,,,"<div class=""gameHeader"">
        </div>
    <div class=""offerCard"" style=""height: auto; min-height: 90vh; overflow-y: auto; display: flex; justify-content: center;"">
        <div class=""bidOffer"" style=""overflow-y: auto; display: flex; flex-direction: column; justify-content: center;""><div style=""display: flex; flex-direction: column; align-items: center; justify-content: center; width: 100%;"">
            <div class=""player2Card"" style=""margin-bottom: 20px;"">
                <p class=""player2Image""><img src=src/images/green_guy.png width=""150""></p>
                <div class=""player2Name""><p>GePl03</p></div>
            </div>

            <div style=""background-color: #f8f9fa; border-radius: 10px; padding: 15px; text-align: center; max-width: 400px;"">
                <p style=""font-family: 'Times New Roman', Times, serif; font-size: 18px; margin: 0;"">GePl03 received <strong>$4.00</strong> and returned <strong>$0.00</strong> to you.</p>
            </div>
        </div></div>
    </div>",,,,,,,,,,,,,,,,,,,,,
,,,,,"html-keyboard-response",66,310826,"0.0-11.0-0.0-9.0-3.0-0.0","663a7dc83986ee24fb6ec0e6",,,,,,,"<div class=""gameHeader"">
        </div>
    <div class=""offerCard"" style=""height: auto; min-height: 90vh; overflow-y: auto; display: flex; justify-content: center;"">
        <div class=""bidOffer"" style=""overflow-y: auto; display: flex; flex-direction: column; justify-content: center;""><div class=""outcomeText""><p style=""font-family: 'Times New Roman', Times, serif; font-size: 18px;"">The next round will begin momentarily.</p>

    <p style=""font-family: 'Times New Roman', Times, serif; font-size: 18px;"">Please wait.</p></div></div>
    </div>",,,,,,,,,,,,,,,,,,,,,
,,,,,"html-keyboard-response",67,311287,"0.0-11.0-0.0-10.0-0.0","663a7dc83986ee24fb6ec0e6",,,460,"f",,,"<div class=""gameHeader"">
        </div>
    <div class=""offerCard"" style=""height: auto; min-height: 90vh; overflow-y: auto; display: flex; justify-content: center;"">
        <div class=""bidOffer"" style=""overflow-y: auto; display: flex; flex-direction: column; justify-content: center;"">
        <div class=""offers"">
        <div class=""textPrompt""><p style=""font-family: 'Times New Roman', Times, serif; font-size: 18px;"">How much money do you want
        <br>to give BaSa02?</p></div>
            <div class =""trustElements"">
            <div class=""player1Card""><p class=""player1Image""><img src=""src/images/gray_guy.png"" width=""150""></p>
                <div class=""player1Name""><p style=""font-family: 'Times New Roman', Times, serif; font-size: 18px;"">PaCo03</p></div>
            </div>

                <div class=""investmentCard"">
                    <div id=""leftBlock"" class=""leftBlock"">
                        <p style=""font-family: 'Times New Roman', Times, serif; font-size: 18px;"">$1</p>
                        <p style=""font-family: 'Times New Roman', Times, serif; font-size: 18px; margin-top: 5px; color: #666;"">Press ""F"" key</p>
                    </div>
                    <div id=""rightBlock"" class=""rightBlock"">
                        <p style=""font-family: 'Times New Roman', Times, serif; font-size: 18px;"">$10</p>
                        <p style=""font-family: 'Times New Roman', Times, serif; font-size: 18px; margin-top: 5px; color: #666;"">Press ""J"" key</p>
                    </div>
                </div>

            <div class=""player2Card""><p class=""player2Image""><img src=src/images/yellow_guy.png width=""150""></p>
                <div class=""player2Name""><p>BaSa02</p></div>
            </div>
            </div>
        </div>
        </div>
    </div>","make_choice",1,1,11,4,0.5,0.11572987890193963,-0.0009663984298435012,,,,,,,,,,,,,
,,,,,"html-keyboard-response",68,313706,"0.0-11.0-0.0-10.0-1.0","663a7dc83986ee24fb6ec0e6",,,,,,,"<div class=""gameHeader"">
        </div>
    <div class=""offerCard"" style=""height: auto; min-height: 90vh; overflow-y: auto; display: flex; justify-content: center;"">
        <div class=""bidOffer"" style=""overflow-y: auto; display: flex; flex-direction: column; justify-content: center;""><div class=""outcomeText""><p style=""font-family: 'Times New Roman', Times, serif; font-size: 18px;"">You selected $1.00</p>

        <p style=""font-family: 'Times New Roman', Times, serif; font-size: 18px;""><br>Your partner is deciding how much to return.</p></div></div>
    </div>",,,,,,,,,,,,,,,,,,,,,
,,,,,"html-keyboard-response",69,317710,"0.0-11.0-0.0-10.0-2.0","663a7dc83986ee24fb6ec0e6",,,,,,,"<div class=""gameHeader"">
        </div>
    <div class=""offerCard"" style=""height: auto; min-height: 90vh; overflow-y: auto; display: flex; justify-content: center;"">
        <div class=""bidOffer"" style=""overflow-y: auto; display: flex; flex-direction: column; justify-content: center;""><div style=""display: flex; flex-direction: column; align-items: center; justify-content: center; width: 100%;"">
            <div class=""player2Card"" style=""margin-bottom: 20px;"">
                <p class=""player2Image""><img src=src/images/yellow_guy.png width=""150""></p>
                <div class=""player2Name""><p>BaSa02</p></div>
            </div>

            <div style=""background-color: #f8f9fa; border-radius: 10px; padding: 15px; text-align: center; max-width: 400px;"">
                <p style=""font-family: 'Times New Roman', Times, serif; font-size: 18px; margin: 0;"">BaSa02 received <strong>$4.00</strong> and returned <strong>$0.50</strong> to you.</p>
            </div>
        </div></div>
    </div>",,,,,,,,,,,,,,,,,,,,,
,,,,,"html-keyboard-response",70,321031,"0.0-11.0-0.0-10.0-3.0-0.0","663a7dc83986ee24fb6ec0e6",,,,,,,"<div class=""gameHeader"">
        </div>
    <div class=""offerCard"" style=""height: auto; min-height: 90vh; overflow-y: auto; display: flex; justify-content: center;"">
        <div class=""bidOffer"" style=""overflow-y: auto; display: flex; flex-direction: column; justify-content: center;""><div class=""outcomeText""><p style=""font-family: 'Times New Roman', Times, serif; font-size: 18px;"">The next round will begin momentarily.</p>

    <p style=""font-family: 'Times New Roman', Times, serif; font-size: 18px;"">Please wait.</p></div></div>
    </div>",,,,,,,,,,,,,,,,,,,,,
,,,,,"html-keyboard-response",71,322345,"0.0-11.0-0.0-11.0-0.0","663a7dc83986ee24fb6ec0e6",,,1313,"f",,,"<div class=""gameHeader"">
        </div>
    <div class=""offerCard"" style=""height: auto; min-height: 90vh; overflow-y: auto; display: flex; justify-content: center;"">
        <div class=""bidOffer"" style=""overflow-y: auto; display: flex; flex-direction: column; justify-content: center;"">
        <div class=""offers"">
        <div class=""textPrompt""><p style=""font-family: 'Times New Roman', Times, serif; font-size: 18px;"">How much money do you want
        <br>to give KeJo06?</p></div>
            <div class =""trustElements"">
            <div class=""player1Card""><p class=""player1Image""><img src=""src/images/gray_guy.png"" width=""150""></p>
                <div class=""player1Name""><p style=""font-family: 'Times New Roman', Times, serif; font-size: 18px;"">PaCo03</p></div>
            </div>

                <div class=""investmentCard"">
                    <div id=""leftBlock"" class=""leftBlock"">
                        <p style=""font-family: 'Times New Roman', Times, serif; font-size: 18px;"">$1</p>
                        <p style=""font-family: 'Times New Roman', Times, serif; font-size: 18px; margin-top: 5px; color: #666;"">Press ""F"" key</p>
                    </div>
                    <div id=""rightBlock"" class=""rightBlock"">
                        <p style=""font-family: 'Times New Roman', Times, serif; font-size: 18px;"">$10</p>
                        <p style=""font-family: 'Times New Roman', Times, serif; font-size: 18px; margin-top: 5px; color: #666;"">Press ""J"" key</p>
                    </div>
                </div>

            <div class=""player2Card""><p class=""player2Image""><img src=src/images/blue_guy.png width=""150""></p>
                <div class=""player2Name""><p>KeJo06</p></div>
            </div>
            </div>
        </div>
        </div>
    </div>","make_choice",1,0,12,4,0.4,0.09543675802453858,0.013674955445270151,,,,,,,,,,,,,
,,,,,"html-keyboard-response",72,325295,"0.0-11.0-0.0-11.0-1.0","663a7dc83986ee24fb6ec0e6",,,,,,,"<div class=""gameHeader"">
        </div>
    <div class=""offerCard"" style=""height: auto; min-height: 90vh; overflow-y: auto; display: flex; justify-content: center;"">
        <div class=""bidOffer"" style=""overflow-y: auto; display: flex; flex-direction: column; justify-content: center;""><div class=""outcomeText""><p style=""font-family: 'Times New Roman', Times, serif; font-size: 18px;"">You selected $1.00</p>

        <p style=""font-family: 'Times New Roman', Times, serif; font-size: 18px;""><br>Your partner is deciding how much to return.</p></div></div>
    </div>",,,,,,,,,,,,,,,,,,,,,
,,,,,"html-keyboard-response",73,329310,"0.0-11.0-0.0-11.0-2.0","663a7dc83986ee24fb6ec0e6",,,,,,,"<div class=""gameHeader"">
        </div>
    <div class=""offerCard"" style=""height: auto; min-height: 90vh; overflow-y: auto; display: flex; justify-content: center;"">
        <div class=""bidOffer"" style=""overflow-y: auto; display: flex; flex-direction: column; justify-content: center;""><div style=""display: flex; flex-direction: column; align-items: center; justify-content: center; width: 100%;"">
            <div class=""player2Card"" style=""margin-bottom: 20px;"">
                <p class=""player2Image""><img src=src/images/blue_guy.png width=""150""></p>
                <div class=""player2Name""><p>KeJo06</p></div>
            </div>

            <div style=""background-color: #f8f9fa; border-radius: 10px; padding: 15px; text-align: center; max-width: 400px;"">
                <p style=""font-family: 'Times New Roman', Times, serif; font-size: 18px; margin: 0;"">KeJo06 received <strong>$4.00</strong> and returned <strong>$0.40</strong> to you.</p>
            </div>
        </div></div>
    </div>",,,,,,,,,,,,,,,,,,,,,
,,,,,"html-keyboard-response",74,332518,"0.0-11.0-0.0-11.0-3.0-0.0","663a7dc83986ee24fb6ec0e6",,,,,,,"<div class=""gameHeader"">
        </div>
    <div class=""offerCard"" style=""height: auto; min-height: 90vh; overflow-y: auto; display: flex; justify-content: center;"">
        <div class=""bidOffer"" style=""overflow-y: auto; display: flex; flex-direction: column; justify-content: center;""><div class=""outcomeText""><p style=""font-family: 'Times New Roman', Times, serif; font-size: 18px;"">The next round will begin momentarily.</p>

    <p style=""font-family: 'Times New Roman', Times, serif; font-size: 18px;"">Please wait.</p></div></div>
    </div>",,,,,,,,,,,,,,,,,,,,,
,,,,,"html-keyboard-response",75,332921,"0.0-11.0-0.0-12.0-0.0","663a7dc83986ee24fb6ec0e6",,,402,"j",,,"<div class=""gameHeader"">
        </div>
    <div class=""offerCard"" style=""height: auto; min-height: 90vh; overflow-y: auto; display: flex; justify-content: center;"">
        <div class=""bidOffer"" style=""overflow-y: auto; display: flex; flex-direction: column; justify-content: center;"">
        <div class=""offers"">
        <div class=""textPrompt""><p style=""font-family: 'Times New Roman', Times, serif; font-size: 18px;"">How much money do you want
        <br>to give ClMa12?</p></div>
            <div class =""trustElements"">
            <div class=""player1Card""><p class=""player1Image""><img src=""src/images/gray_guy.png"" width=""150""></p>
                <div class=""player1Name""><p style=""font-family: 'Times New Roman', Times, serif; font-size: 18px;"">PaCo03</p></div>
            </div>

                <div class=""investmentCard"">
                    <div id=""leftBlock"" class=""leftBlock"">
                        <p style=""font-family: 'Times New Roman', Times, serif; font-size: 18px;"">$1</p>
                        <p style=""font-family: 'Times New Roman', Times, serif; font-size: 18px; margin-top: 5px; color: #666;"">Press ""F"" key</p>
                    </div>
                    <div id=""rightBlock"" class=""rightBlock"">
                        <p style=""font-family: 'Times New Roman', Times, serif; font-size: 18px;"">$10</p>
                        <p style=""font-family: 'Times New Roman', Times, serif; font-size: 18px; margin-top: 5px; color: #666;"">Press ""J"" key</p>
                    </div>
                </div>

            <div class=""player2Card""><p class=""player2Image""><img src=src/images/red_guy.png width=""150""></p>
                <div class=""player2Name""><p>ClMa12</p></div>
            </div>
            </div>
        </div>
        </div>
    </div>","make_choice",10,3,13,5,17.9,0.46233722184561526,-0.01409651968634022,,,,,,,,,,,,,
,,,,,"html-keyboard-response",76,336551,"0.0-11.0-0.0-12.0-1.0","663a7dc83986ee24fb6ec0e6",,,,,,,"<div class=""gameHeader"">
        </div>
    <div class=""offerCard"" style=""height: auto; min-height: 90vh; overflow-y: auto; display: flex; justify-content: center;"">
        <div class=""bidOffer"" style=""overflow-y: auto; display: flex; flex-direction: column; justify-content: center;""><div class=""outcomeText""><p style=""font-family: 'Times New Roman', Times, serif; font-size: 18px;"">You selected $10.00</p>

        <p style=""font-family: 'Times New Roman', Times, serif; font-size: 18px;""><br>Your partner is deciding how much to return.</p></div></div>
    </div>",,,,,,,,,,,,,,,,,,,,,
,,,,,"html-keyboard-response",77,340556,"0.0-11.0-0.0-12.0-2.0","663a7dc83986ee24fb6ec0e6",,,,,,,"<div class=""gameHeader"">
        </div>
    <div class=""offerCard"" style=""height: auto; min-height: 90vh; overflow-y: auto; display: flex; justify-content: center;"">
        <div class=""bidOffer"" style=""overflow-y: auto; display: flex; flex-direction: column; justify-content: center;""><div style=""display: flex; flex-direction: column; align-items: center; justify-content: center; width: 100%;"">
            <div class=""player2Card"" style=""margin-bottom: 20px;"">
                <p class=""player2Image""><img src=src/images/red_guy.png width=""150""></p>
                <div class=""player2Name""><p>ClMa12</p></div>
            </div>

            <div style=""background-color: #f8f9fa; border-radius: 10px; padding: 15px; text-align: center; max-width: 400px;"">
                <p style=""font-family: 'Times New Roman', Times, serif; font-size: 18px; margin: 0;"">ClMa12 received <strong>$40.00</strong> and returned <strong>$17.90</strong> to you.</p>
            </div>
        </div></div>
    </div>",,,,,,,,,,,,,,,,,,,,,
,,,,,"html-keyboard-response",78,343158,"0.0-11.0-0.0-12.0-3.0-0.0","663a7dc83986ee24fb6ec0e6",,,,,,,"<div class=""gameHeader"">
        </div>
    <div class=""offerCard"" style=""height: auto; min-height: 90vh; overflow-y: auto; display: flex; justify-content: center;"">
        <div class=""bidOffer"" style=""overflow-y: auto; display: flex; flex-direction: column; justify-content: center;""><div class=""outcomeText""><p style=""font-family: 'Times New Roman', Times, serif; font-size: 18px;"">The next round will begin momentarily.</p>

    <p style=""font-family: 'Times New Roman', Times, serif; font-size: 18px;"">Please wait.</p></div></div>
    </div>",,,,,,,,,,,,,,,,,,,,,
,,,,,"html-keyboard-response",79,343510,"0.0-11.0-0.0-13.0-0.0","663a7dc83986ee24fb6ec0e6",,,351,"j",,,"<div class=""gameHeader"">
        </div>
    <div class=""offerCard"" style=""height: auto; min-height: 90vh; overflow-y: auto; display: flex; justify-content: center;"">
        <div class=""bidOffer"" style=""overflow-y: auto; display: flex; flex-direction: column; justify-content: center;"">
        <div class=""offers"">
        <div class=""textPrompt""><p style=""font-family: 'Times New Roman', Times, serif; font-size: 18px;"">How much money do you want
        <br>to give GePl03?</p></div>
            <div class =""trustElements"">
            <div class=""player1Card""><p class=""player1Image""><img src=""src/images/gray_guy.png"" width=""150""></p>
                <div class=""player1Name""><p style=""font-family: 'Times New Roman', Times, serif; font-size: 18px;"">PaCo03</p></div>
            </div>

                <div class=""investmentCard"">
                    <div id=""leftBlock"" class=""leftBlock"">
                        <p style=""font-family: 'Times New Roman', Times, serif; font-size: 18px;"">$1</p>
                        <p style=""font-family: 'Times New Roman', Times, serif; font-size: 18px; margin-top: 5px; color: #666;"">Press ""F"" key</p>
                    </div>
                    <div id=""rightBlock"" class=""rightBlock"">
                        <p style=""font-family: 'Times New Roman', Times, serif; font-size: 18px;"">$10</p>
                        <p style=""font-family: 'Times New Roman', Times, serif; font-size: 18px; margin-top: 5px; color: #666;"">Press ""J"" key</p>
                    </div>
                </div>

            <div class=""player2Card""><p class=""player2Image""><img src=src/images/green_guy.png width=""150""></p>
                <div class=""player2Name""><p>GePl03</p></div>
            </div>
            </div>
        </div>
        </div>
    </div>","make_choice",10,2,14,5,18,0.44258100648179194,0.007854288797498929,,,,,,,,,,,,,
,,,,,"html-keyboard-response",80,346785,"0.0-11.0-0.0-13.0-1.0","663a7dc83986ee24fb6ec0e6",,,,,,,"<div class=""gameHeader"">
        </div>
    <div class=""offerCard"" style=""height: auto; min-height: 90vh; overflow-y: auto; display: flex; justify-content: center;"">
        <div class=""bidOffer"" style=""overflow-y: auto; display: flex; flex-direction: column; justify-content: center;""><div class=""outcomeText""><p style=""font-family: 'Times New Roman', Times, serif; font-size: 18px;"">You selected $10.00</p>

        <p style=""font-family: 'Times New Roman', Times, serif; font-size: 18px;""><br>Your partner is deciding how much to return.</p></div></div>
    </div>",,,,,,,,,,,,,,,,,,,,,
,,,,,"html-keyboard-response",81,350799,"0.0-11.0-0.0-13.0-2.0","663a7dc83986ee24fb6ec0e6",,,,,,,"<div class=""gameHeader"">
        </div>
    <div class=""offerCard"" style=""height: auto; min-height: 90vh; overflow-y: auto; display: flex; justify-content: center;"">
        <div class=""bidOffer"" style=""overflow-y: auto; display: flex; flex-direction: column; justify-content: center;""><div style=""display: flex; flex-direction: column; align-items: center; justify-content: center; width: 100%;"">
            <div class=""player2Card"" style=""margin-bottom: 20px;"">
                <p class=""player2Image""><img src=src/images/green_guy.png width=""150""></p>
                <div class=""player2Name""><p>GePl03</p></div>
            </div>

            <div style=""background-color: #f8f9fa; border-radius: 10px; padding: 15px; text-align: center; max-width: 400px;"">
                <p style=""font-family: 'Times New Roman', Times, serif; font-size: 18px; margin: 0;"">GePl03 received <strong>$40.00</strong> and returned <strong>$18.00</strong> to you.</p>
            </div>
        </div></div>
    </div>",,,,,,,,,,,,,,,,,,,,,
,,,,,"html-keyboard-response",82,354693,"0.0-11.0-0.0-13.0-3.0-0.0","663a7dc83986ee24fb6ec0e6",,,,,,,"<div class=""gameHeader"">
        </div>
    <div class=""offerCard"" style=""height: auto; min-height: 90vh; overflow-y: auto; display: flex; justify-content: center;"">
        <div class=""bidOffer"" style=""overflow-y: auto; display: flex; flex-direction: column; justify-content: center;""><div class=""outcomeText""><p style=""font-family: 'Times New Roman', Times, serif; font-size: 18px;"">The next round will begin momentarily.</p>

    <p style=""font-family: 'Times New Roman', Times, serif; font-size: 18px;"">Please wait.</p></div></div>
    </div>",,,,,,,,,,,,,,,,,,,,,
,,,,,"html-keyboard-response",83,355109,"0.0-11.0-0.0-14.0-0.0","663a7dc83986ee24fb6ec0e6",,,415,"j",,,"<div class=""gameHeader"">
        </div>
    <div class=""offerCard"" style=""height: auto; min-height: 90vh; overflow-y: auto; display: flex; justify-content: center;"">
        <div class=""bidOffer"" style=""overflow-y: auto; display: flex; flex-direction: column; justify-content: center;"">
        <div class=""offers"">
        <div class=""textPrompt""><p style=""font-family: 'Times New Roman', Times, serif; font-size: 18px;"">How much money do you want
        <br>to give BaSa02?</p></div>
            <div class =""trustElements"">
            <div class=""player1Card""><p class=""player1Image""><img src=""src/images/gray_guy.png"" width=""150""></p>
                <div class=""player1Name""><p style=""font-family: 'Times New Roman', Times, serif; font-size: 18px;"">PaCo03</p></div>
            </div>

                <div class=""investmentCard"">
                    <div id=""leftBlock"" class=""leftBlock"">
                        <p style=""font-family: 'Times New Roman', Times, serif; font-size: 18px;"">$1</p>
                        <p style=""font-family: 'Times New Roman', Times, serif; font-size: 18px; margin-top: 5px; color: #666;"">Press ""F"" key</p>
                    </div>
                    <div id=""rightBlock"" class=""rightBlock"">
                        <p style=""font-family: 'Times New Roman', Times, serif; font-size: 18px;"">$10</p>
                        <p style=""font-family: 'Times New Roman', Times, serif; font-size: 18px; margin-top: 5px; color: #666;"">Press ""J"" key</p>
                    </div>
                </div>

            <div class=""player2Card""><p class=""player2Image""><img src=src/images/yellow_guy.png width=""150""></p>
                <div class=""player2Name""><p>BaSa02</p></div>
            </div>
            </div>
        </div>
        </div>
    </div>","make_choice",10,1,15,5,7.3,0.1794913625077009,0.0032809676393369155,,,,,,,,,,,,,
,,,,,"html-keyboard-response",84,357460,"0.0-11.0-0.0-14.0-1.0","663a7dc83986ee24fb6ec0e6",,,,,,,"<div class=""gameHeader"">
        </div>
    <div class=""offerCard"" style=""height: auto; min-height: 90vh; overflow-y: auto; display: flex; justify-content: center;"">
        <div class=""bidOffer"" style=""overflow-y: auto; display: flex; flex-direction: column; justify-content: center;""><div class=""outcomeText""><p style=""font-family: 'Times New Roman', Times, serif; font-size: 18px;"">You selected $10.00</p>

        <p style=""font-family: 'Times New Roman', Times, serif; font-size: 18px;""><br>Your partner is deciding how much to return.</p></div></div>
    </div>",,,,,,,,,,,,,,,,,,,,,
,,,,,"html-keyboard-response",85,361466,"0.0-11.0-0.0-14.0-2.0","663a7dc83986ee24fb6ec0e6",,,,,,,"<div class=""gameHeader"">
        </div>
    <div class=""offerCard"" style=""height: auto; min-height: 90vh; overflow-y: auto; display: flex; justify-content: center;"">
        <div class=""bidOffer"" style=""overflow-y: auto; display: flex; flex-direction: column; justify-content: center;""><div style=""display: flex; flex-direction: column; align-items: center; justify-content: center; width: 100%;"">
            <div class=""player2Card"" style=""margin-bottom: 20px;"">
                <p class=""player2Image""><img src=src/images/yellow_guy.png width=""150""></p>
                <div class=""player2Name""><p>BaSa02</p></div>
            </div>

            <div style=""background-color: #f8f9fa; border-radius: 10px; padding: 15px; text-align: center; max-width: 400px;"">
                <p style=""font-family: 'Times New Roman', Times, serif; font-size: 18px; margin: 0;"">BaSa02 received <strong>$40.00</strong> and returned <strong>$7.30</strong> to you.</p>
            </div>
        </div></div>
    </div>",,,,,,,,,,,,,,,,,,,,,
,,,,,"html-keyboard-response",86,363575,"0.0-11.0-0.0-14.0-3.0-0.0","663a7dc83986ee24fb6ec0e6",,,,,,,"<div class=""gameHeader"">
        </div>
    <div class=""offerCard"" style=""height: auto; min-height: 90vh; overflow-y: auto; display: flex; justify-content: center;"">
        <div class=""bidOffer"" style=""overflow-y: auto; display: flex; flex-direction: column; justify-content: center;""><div class=""outcomeText""><p style=""font-family: 'Times New Roman', Times, serif; font-size: 18px;"">The next round will begin momentarily.</p>

    <p style=""font-family: 'Times New Roman', Times, serif; font-size: 18px;"">Please wait.</p></div></div>
    </div>",,,,,,,,,,,,,,,,,,,,,
,,,,,"html-keyboard-response",87,364114,"0.0-11.0-0.0-15.0-0.0","663a7dc83986ee24fb6ec0e6",,,538,"j",,,"<div class=""gameHeader"">
        </div>
    <div class=""offerCard"" style=""height: auto; min-height: 90vh; overflow-y: auto; display: flex; justify-content: center;"">
        <div class=""bidOffer"" style=""overflow-y: auto; display: flex; flex-direction: column; justify-content: center;"">
        <div class=""offers"">
        <div class=""textPrompt""><p style=""font-family: 'Times New Roman', Times, serif; font-size: 18px;"">How much money do you want
        <br>to give KeJo06?</p></div>
            <div class =""trustElements"">
            <div class=""player1Card""><p class=""player1Image""><img src=""src/images/gray_guy.png"" width=""150""></p>
                <div class=""player1Name""><p style=""font-family: 'Times New Roman', Times, serif; font-size: 18px;"">PaCo03</p></div>
            </div>

                <div class=""investmentCard"">
                    <div id=""leftBlock"" class=""leftBlock"">
                        <p style=""font-family: 'Times New Roman', Times, serif; font-size: 18px;"">$1</p>
                        <p style=""font-family: 'Times New Roman', Times, serif; font-size: 18px; margin-top: 5px; color: #666;"">Press ""F"" key</p>
                    </div>
                    <div id=""rightBlock"" class=""rightBlock"">
                        <p style=""font-family: 'Times New Roman', Times, serif; font-size: 18px;"">$10</p>
                        <p style=""font-family: 'Times New Roman', Times, serif; font-size: 18px; margin-top: 5px; color: #666;"">Press ""J"" key</p>
                    </div>
                </div>

            <div class=""player2Card""><p class=""player2Image""><img src=src/images/blue_guy.png width=""150""></p>
                <div class=""player2Name""><p>KeJo06</p></div>
            </div>
            </div>
        </div>
        </div>
    </div>","make_choice",10,0,16,6,7.6,0.20001467621063138,-0.009623777585655018,,,,,,,,,,,,,
,,,,,"html-keyboard-response",88,366972,"0.0-11.0-0.0-15.0-1.0","663a7dc83986ee24fb6ec0e6",,,,,,,"<div class=""gameHeader"">
        </div>
    <div class=""offerCard"" style=""height: auto; min-height: 90vh; overflow-y: auto; display: flex; justify-content: center;"">
        <div class=""bidOffer"" style=""overflow-y: auto; display: flex; flex-direction: column; justify-content: center;""><div class=""outcomeText""><p style=""font-family: 'Times New Roman', Times, serif; font-size: 18px;"">You selected $10.00</p>

        <p style=""font-family: 'Times New Roman', Times, serif; font-size: 18px;""><br>Your partner is deciding how much to return.</p></div></div>
    </div>",,,,,,,,,,,,,,,,,,,,,
,,,,,"html-keyboard-response",89,370975,"0.0-11.0-0.0-15.0-2.0","663a7dc83986ee24fb6ec0e6",,,,,,,"<div class=""gameHeader"">
        </div>
    <div class=""offerCard"" style=""height: auto; min-height: 90vh; overflow-y: auto; display: flex; justify-content: center;"">
        <div class=""bidOffer"" style=""overflow-y: auto; display: flex; flex-direction: column; justify-content: center;""><div style=""display: flex; flex-direction: column; align-items: center; justify-content: center; width: 100%;"">
            <div class=""player2Card"" style=""margin-bottom: 20px;"">
                <p class=""player2Image""><img src=src/images/blue_guy.png width=""150""></p>
                <div class=""player2Name""><p>KeJo06</p></div>
            </div>

            <div style=""background-color: #f8f9fa; border-radius: 10px; padding: 15px; text-align: center; max-width: 400px;"">
                <p style=""font-family: 'Times New Roman', Times, serif; font-size: 18px; margin: 0;"">KeJo06 received <strong>$40.00</strong> and returned <strong>$7.60</strong> to you.</p>
            </div>
        </div></div>
    </div>",,,,,,,,,,,,,,,,,,,,,
,,,,,"html-keyboard-response",90,373397,"0.0-11.0-0.0-15.0-3.0-0.0","663a7dc83986ee24fb6ec0e6",,,,,,,"<div class=""gameHeader"">
        </div>
    <div class=""offerCard"" style=""height: auto; min-height: 90vh; overflow-y: auto; display: flex; justify-content: center;"">
        <div class=""bidOffer"" style=""overflow-y: auto; display: flex; flex-direction: column; justify-content: center;""><div class=""outcomeText""><p style=""font-family: 'Times New Roman', Times, serif; font-size: 18px;"">The next round will begin momentarily.</p>

    <p style=""font-family: 'Times New Roman', Times, serif; font-size: 18px;"">Please wait.</p></div></div>
    </div>",,,,,,,,,,,,,,,,,,,,,
,,,,,"html-keyboard-response",91,374164,"0.0-11.0-0.0-16.0-0.0","663a7dc83986ee24fb6ec0e6",,,766,"j",,,"<div class=""gameHeader"">
        </div>
    <div class=""offerCard"" style=""height: auto; min-height: 90vh; overflow-y: auto; display: flex; justify-content: center;"">
        <div class=""bidOffer"" style=""overflow-y: auto; display: flex; flex-direction: column; justify-content: center;"">
        <div class=""offers"">
        <div class=""textPrompt""><p style=""font-family: 'Times New Roman', Times, serif; font-size: 18px;"">How much money do you want
        <br>to give BaSa02?</p></div>
            <div class =""trustElements"">
            <div class=""player1Card""><p class=""player1Image""><img src=""src/images/gray_guy.png"" width=""150""></p>
                <div class=""player1Name""><p style=""font-family: 'Times New Roman', Times, serif; font-size: 18px;"">PaCo03</p></div>
            </div>

                <div class=""investmentCard"">
                    <div id=""leftBlock"" class=""leftBlock"">
                        <p style=""font-family: 'Times New Roman', Times, serif; font-size: 18px;"">$1</p>
                        <p style=""font-family: 'Times New Roman', Times, serif; font-size: 18px; margin-top: 5px; color: #666;"">Press ""F"" key</p>
                    </div>
                    <div id=""rightBlock"" class=""rightBlock"">
                        <p style=""font-family: 'Times New Roman', Times, serif; font-size: 18px;"">$10</p>
                        <p style=""font-family: 'Times New Roman', Times, serif; font-size: 18px; margin-top: 5px; color: #666;"">Press ""J"" key</p>
                    </div>
                </div>

            <div class=""player2Card""><p class=""player2Image""><img src=src/images/yellow_guy.png width=""150""></p>
                <div class=""player2Name""><p>BaSa02</p></div>
            </div>
            </div>
        </div>
        </div>
    </div>","make_choice",10,1,17,6,8.6,0.21700883996823164,-0.0012037721415815979,,,,,,,,,,,,,
,,,,,"html-keyboard-response",92,376928,"0.0-11.0-0.0-16.0-1.0","663a7dc83986ee24fb6ec0e6",,,,,,,"<div class=""gameHeader"">
        </div>
    <div class=""offerCard"" style=""height: auto; min-height: 90vh; overflow-y: auto; display: flex; justify-content: center;"">
        <div class=""bidOffer"" style=""overflow-y: auto; display: flex; flex-direction: column; justify-content: center;""><div class=""outcomeText""><p style=""font-family: 'Times New Roman', Times, serif; font-size: 18px;"">You selected $10.00</p>

        <p style=""font-family: 'Times New Roman', Times, serif; font-size: 18px;""><br>Your partner is deciding how much to return.</p></div></div>
    </div>",,,,,,,,,,,,,,,,,,,,,
,,,,,"html-keyboard-response",93,380930,"0.0-11.0-0.0-16.0-2.0","663a7dc83986ee24fb6ec0e6",,,,,,,"<div class=""gameHeader"">
        </div>
    <div class=""offerCard"" style=""height: auto; min-height: 90vh; overflow-y: auto; display: flex; justify-content: center;"">
