[
  {
    "success": true,
    "timeout": false,
    "failed_images": [],
    "failed_audio": [],
    "failed_video": [],
    "trial_type": "preload",
    "trial_index": 0,
    "time_elapsed": 370,
    "internal_node_id": "0.0-0.0",
    "participant_id": "5f2f8574ff256b37b1970220",
    "PID": null
  },
  {
    "success": true,
    "rt": 7175,
    "trial_type": "fullscreen",
    "trial_index": 1,
    "time_elapsed": 8550,
    "internal_node_id": "0.0-1.0",
    "participant_id": "5f2f8574ff256b37b1970220",
    "PID": null
  },
  {
    "rt": 4539,
    "response": {
      "participant_id": "5f2f8574ff256b37b1970220"
    },
    "trial_type": "survey-html-form",
    "trial_index": 2,
    "time_elapsed": 13091,
    "internal_node_id": "0.0-2.0",
    "participant_id": "5f2f8574ff256b37b1970220",
    "PID": null
  },
  {
    "rt": 40206,
    "response": {
      "session_username": "Nisz06"
    },
    "trial_type": "survey-html-form",
    "trial_index": 3,
    "time_elapsed": 53298,
    "internal_node_id": "0.0-3.0",
    "participant_id": "5f2f8574ff256b37b1970220",
    "PID": null
  },
  {
    "view_history": [
      {
        "page_index": 0,
        "viewing_time": 2947
      }
    ],
    "rt": 2947,
    "trial_type": "instructions",
    "trial_index": 4,
    "time_elapsed": 56246,
    "internal_node_id": "0.0-4.0",
    "participant_id": "5f2f8574ff256b37b1970220",
    "PID": null
  },
  {
    "view_history": [
      {
        "page_index": 0,
        "viewing_time": 21911
      },
      {
        "page_index": 1,
        "viewing_time": 39332
      },
      {
        "page_index": 2,
        "viewing_time": 33752
      },
      {
        "page_index": 3,
        "viewing_time": 12983
      }
    ],
    "rt": 107978,
    "trial_type": "instructions",
    "trial_index": 5,
    "time_elapsed": 164225,
    "internal_node_id": "0.0-5.0-0.0",
    "participant_id": "5f2f8574ff256b37b1970220",
    "PID": null
  },
  {
    "rt": 74871,
    "response": {
      "min_max": "<span style='font-family: Times New Roman, Times, serif; font-size: 18px;'>$1 minimum, $10 maximum</span>",
      "scenario_1": "<span style='font-family: Times New Roman, Times, serif; font-size: 18px;'>You: $0.50, Partner: $3.50</span>",
      "scenario_2": "<span style='font-family: Times New Roman, Times, serif; font-size: 18px;'>You: $20.00, Partner: $20.00</span>",
      "trials_selected": "<span style='font-family: Times New Roman, Times, serif; font-size: 18px;'>4 trials</span>"
    },
    "question_order": [
      0,
      1,
      2,
      3
    ],
    "trial_type": "survey-multi-choice",
    "trial_index": 6,
    "time_elapsed": 239099,
    "internal_node_id": "0.0-5.0-1.0",
    "participant_id": "5f2f8574ff256b37b1970220",
    "PID": null
  },
  {
    "rt": 13385,
    "stimulus": "<div class=\"wrapTextBox\"><p style=\"font-family: Times New Roman, Times, serif; font-size: 18px; margin-bottom: 20px;\"><strong>Comprehension Check Results</strong></p><p style=\"font-family: Times New Roman, Times, serif; font-size: 18px; color: green;\">✓ What is the minimum and maximum you can share - Correct</p><p style=\"font-family: Times New Roman, Times, serif; font-size: 18px; color: red;\">❌ If you share $1.00 and partner returns $0.50 - Incorrect</p><p style=\"font-family: Times New Roman, Times, serif; font-size: 18px; color: green;\">✓ If you share $10.00 and partner returns half - Correct</p><p style=\"font-family: Times New Roman, Times, serif; font-size: 18px; color: green;\">✓ How many trials determine your bonus payment - Correct</p><p style=\"font-family: Times New Roman, Times, serif; color: red; font-weight: bold; margin-top: 20px; font-size: 18px;\">Some answers were incorrect. Please review the instructions and try again.</p></div>",
    "response": " ",
    "trial_type": "html-keyboard-response",
    "trial_index": 7,
    "time_elapsed": 252486,
    "internal_node_id": "0.0-5.0-2.0",
    "participant_id": "5f2f8574ff256b37b1970220",
    "PID": null
  },
  {
    "view_history": [
      {
        "page_index": 0,
        "viewing_time": 5583
      },
      {
        "page_index": 1,
        "viewing_time": 13800
      },
      {
        "page_index": 2,
        "viewing_time": 57628
      },
      {
        "page_index": 3,
        "viewing_time": 1821
      }
    ],
    "rt": 78831,
    "trial_type": "instructions",
    "trial_index": 8,
    "time_elapsed": 331318,
    "internal_node_id": "0.0-5.1-0.1",
    "participant_id": "5f2f8574ff256b37b1970220",
    "PID": null
  },
  {
    "rt": 17003,
    "response": {
      "min_max": "<span style='font-family: Times New Roman, Times, serif; font-size: 18px;'>$1 minimum, $10 maximum</span>",
      "scenario_1": "<span style='font-family: Times New Roman, Times, serif; font-size: 18px;'>You: $1.50, Partner: $3.50</span>",
      "scenario_2": "<span style='font-family: Times New Roman, Times, serif; font-size: 18px;'>You: $20.00, Partner: $20.00</span>",
      "trials_selected": "<span style='font-family: Times New Roman, Times, serif; font-size: 18px;'>4 trials</span>"
    },
    "question_order": [
      0,
      1,
      2,
      3
    ],
    "trial_type": "survey-multi-choice",
    "trial_index": 9,
    "time_elapsed": 348323,
    "internal_node_id": "0.0-5.1-1.1",
    "participant_id": "5f2f8574ff256b37b1970220",
    "PID": null
  },
  {
    "rt": 5275,
    "stimulus": "<div class=\"wrapTextBox\"><p style=\"font-family: Times New Roman, Times, serif; font-size: 18px; margin-bottom: 20px;\"><strong>Comprehension Check Results</strong></p><p style=\"font-family: Times New Roman, Times, serif; font-size: 18px; color: green;\">✓ What is the minimum and maximum you can share - Correct</p><p style=\"font-family: Times New Roman, Times, serif; font-size: 18px; color: red;\">❌ If you share $1.00 and partner returns $0.50 - Incorrect</p><p style=\"font-family: Times New Roman, Times, serif; font-size: 18px; color: green;\">✓ If you share $10.00 and partner returns half - Correct</p><p style=\"font-family: Times New Roman, Times, serif; font-size: 18px; color: green;\">✓ How many trials determine your bonus payment - Correct</p><p style=\"font-family: Times New Roman, Times, serif; color: red; font-weight: bold; margin-top: 20px; font-size: 18px;\">Some answers were incorrect. Please review the instructions and try again.</p></div>",
    "response": " ",
    "trial_type": "html-keyboard-response",
    "trial_index": 10,
    "time_elapsed": 353600,
    "internal_node_id": "0.0-5.1-2.1",
    "participant_id": "5f2f8574ff256b37b1970220",
    "PID": null
  },
  {
    "view_history": [
      {
        "page_index": 0,
        "viewing_time": 1430
      },
      {
        "page_index": 1,
        "viewing_time": 1028
      },
      {
        "page_index": 2,
        "viewing_time": 24729
      },
      {
        "page_index": 3,
        "viewing_time": 1043
      }
    ],
    "rt": 28229,
    "trial_type": "instructions",
    "trial_index": 11,
    "time_elapsed": 381829,
    "internal_node_id": "0.0-5.2-0.2",
    "participant_id": "5f2f8574ff256b37b1970220",
    "PID": null
  },
  {
    "rt": 19556,
    "response": {
      "min_max": "<span style='font-family: Times New Roman, Times, serif; font-size: 18px;'>$1 minimum, $10 maximum</span>",
      "scenario_1": "<span style='font-family: Times New Roman, Times, serif; font-size: 18px;'>You: $0.50, Partner: $3.50</span>",
      "scenario_2": "<span style='font-family: Times New Roman, Times, serif; font-size: 18px;'>You: $20.00, Partner: $20.00</span>",
      "trials_selected": "<span style='font-family: Times New Roman, Times, serif; font-size: 18px;'>4 trials</span>"
    },
    "question_order": [
      0,
      1,
      2,
      3
    ],
    "trial_type": "survey-multi-choice",
    "trial_index": 12,
    "time_elapsed": 401387,
    "internal_node_id": "0.0-5.2-1.2",
    "participant_id": "5f2f8574ff256b37b1970220",
    "PID": null
  },
  {
    "rt": 3760,
    "stimulus": "<div class=\"wrapTextBox\"><p style=\"font-family: Times New Roman, Times, serif; font-size: 18px; margin-bottom: 20px;\"><strong>Comprehension Check Results</strong></p><p style=\"font-family: Times New Roman, Times, serif; font-size: 18px; color: green;\">✓ What is the minimum and maximum you can share - Correct</p><p style=\"font-family: Times New Roman, Times, serif; font-size: 18px; color: red;\">❌ If you share $1.00 and partner returns $0.50 - Incorrect</p><p style=\"font-family: Times New Roman, Times, serif; font-size: 18px; color: green;\">✓ If you share $10.00 and partner returns half - Correct</p><p style=\"font-family: Times New Roman, Times, serif; font-size: 18px; color: green;\">✓ How many trials determine your bonus payment - Correct</p><p style=\"font-family: Times New Roman, Times, serif; color: red; font-weight: bold; margin-top: 20px; font-size: 18px;\">Some answers were incorrect. Please review the instructions and try again.</p></div>",
    "response": " ",
    "trial_type": "html-keyboard-response",
    "trial_index": 13,
    "time_elapsed": 405148,
    "internal_node_id": "0.0-5.2-2.2",
    "participant_id": "5f2f8574ff256b37b1970220",
    "PID": null
  },
  {
    "view_history": [
      {
        "page_index": 0,
        "viewing_time": 1193
      },
      {
        "page_index": 1,
        "viewing_time": 512
      },
      {
        "page_index": 2,
        "viewing_time": 656
      },
      {
        "page_index": 3,
        "viewing_time": 852
      }
    ],
    "rt": 3213,
    "trial_type": "instructions",
    "trial_index": 14,
    "time_elapsed": 408362,
    "internal_node_id": "0.0-5.3-0.3",
    "participant_id": "5f2f8574ff256b37b1970220",
    "PID": null
  },
  {
    "rt": 17188,
    "response": {
      "min_max": "<span style='font-family: Times New Roman, Times, serif; font-size: 18px;'>$1 minimum, $10 maximum</span>",
      "scenario_1": "<span style='font-family: Times New Roman, Times, serif; font-size: 18px;'>You: $9.50, Partner: $3.50</span>",
      "scenario_2": "<span style='font-family: Times New Roman, Times, serif; font-size: 18px;'>You: $20.00, Partner: $20.00</span>",
      "trials_selected": "<span style='font-family: Times New Roman, Times, serif; font-size: 18px;'>4 trials</span>"
    },
    "question_order": [
      0,
      1,
      2,
      3
    ],
    "trial_type": "survey-multi-choice",
    "trial_index": 15,
    "time_elapsed": 425551,
    "internal_node_id": "0.0-5.3-1.3",
    "participant_id": "5f2f8574ff256b37b1970220",
    "PID": null
  },
  {
    "rt": 2448,
    "stimulus": "<div class=\"wrapTextBox\"><p style=\"font-family: Times New Roman, Times, serif; font-size: 18px; margin-bottom: 20px;\"><strong>Comprehension Check Results</strong></p><p style=\"font-family: Times New Roman, Times, serif; font-size: 18px; color: green;\">✓ What is the minimum and maximum you can share - Correct</p><p style=\"font-family: Times New Roman, Times, serif; font-size: 18px; color: green;\">✓ If you share $1.00 and partner returns $0.50 - Correct</p><p style=\"font-family: Times New Roman, Times, serif; font-size: 18px; color: green;\">✓ If you share $10.00 and partner returns half - Correct</p><p style=\"font-family: Times New Roman, Times, serif; font-size: 18px; color: green;\">✓ How many trials determine your bonus payment - Correct</p><p style=\"font-family: Times New Roman, Times, serif; color: green; font-weight: bold; margin-top: 20px; font-size: 18px;\">All answers are correct! You can now proceed to the experiment.</p></div>",
    "response": " ",
    "trial_type": "html-keyboard-response",
    "trial_index": 16,
    "time_elapsed": 428000,
    "internal_node_id": "0.0-5.3-2.3",
    "participant_id": "5f2f8574ff256b37b1970220",
    "PID": null
  },
  {
    "rt": 2308,
    "stimulus": [
      "<div class=\"gameHeader\">\n        </div>\n    <div class=\"offerCard\" style=\"height: auto; min-height: 90vh; overflow-y: auto; display: flex; justify-content: center;\">\n        <div class=\"bidOffer\" style=\"overflow-y: auto; display: flex; flex-direction: column; justify-content: center;\">\n    <div class =\"wrapTextBox\">\n        <p style=\"font-family: 'Times New Roman', Times, serif; font-size: 18px;\">All participants are ready to begin the session.</p>\n        <p style=\"font-family: 'Times New Roman', Times, serif; font-size: 18px;\">Four participants have been randomly matched as your partners for this experiment.</p>\n        <p style=\"font-family: 'Times New Roman', Times, serif; font-size: 18px;\"><strong>Press the spacebar to begin the game!</strong></p>\n    </div>\n    </div>\n    </div>"
    ],
    "response": " ",
    "trial_type": "html-keyboard-response",
    "trial_index": 17,
    "time_elapsed": 430309,
    "internal_node_id": "0.0-6.0",
    "participant_id": "5f2f8574ff256b37b1970220",
    "PID": null
  },
  {
    "rt": 3522,
    "stimulus": "<div class=\"gameHeader\">\n        </div>\n    <div class=\"offerCard\">\n        <div class=\"bidOffer\">\n            <div class=\"instructionsText\">\n        <div class =\"wrapTextBox\">\n            <p><strong>Practice Phase</strong></p>\n            <p>Let's practice the task before starting the real experiment.</p>\n            <p>You will complete 4 practice trials. These won't count toward your final payment.</p>\n            <p>Press the spacebar to begin practice.</p>\n        </div>\n        </div>\n        </div>\n    </div>",
    "response": " ",
    "trial_type": "html-keyboard-response",
    "trial_index": 18,
    "time_elapsed": 433832,
    "internal_node_id": "0.0-7.0",
    "participant_id": "5f2f8574ff256b37b1970220",
    "PID": null
  },
  {
    "rt": null,
    "stimulus": "<div class=\"gameHeader\">\n        </div>\n    <div class=\"offerCard\" style=\"height: auto; min-height: 90vh; overflow-y: auto; display: flex; justify-content: center;\">\n        <div class=\"bidOffer\" style=\"overflow-y: auto; display: flex; flex-direction: column; justify-content: center;\">\n        <div class=\"offers\">\n        <div class=\"textPrompt\"><p style=\"font-family: 'Times New Roman', Times, serif; font-size: 18px;\">How much money do you want\n        <br>to give Partner?</p></div>\n            <div class =\"trustElements\">\n            <div class=\"player1Card\"><p class=\"player1Image\"><img src=\"src/images/gray_guy.png\" width=\"150\"></p>\n                <div class=\"player1Name\"><p style=\"font-family: 'Times New Roman', Times, serif; font-size: 18px;\">Nisz06</p></div>\n            </div>\n\n                <div class=\"investmentCard\">\n                    <div id=\"leftBlock\" class=\"leftBlock\">\n                        <p style=\"font-family: 'Times New Roman', Times, serif; font-size: 18px;\">$1</p>\n                        <p style=\"font-family: 'Times New Roman', Times, serif; font-size: 18px; margin-top: 5px; color: #666;\">Press \"F\" key</p>\n                    </div>\n                    <div id=\"rightBlock\" class=\"rightBlock\">\n                        <p style=\"font-family: 'Times New Roman', Times, serif; font-size: 18px;\">$10</p>\n                        <p style=\"font-family: 'Times New Roman', Times, serif; font-size: 18px; margin-top: 5px; color: #666;\">Press \"J\" key</p>\n                    </div>\n                </div>\n\n            <div class=\"player2Card\"><p class=\"player2Image\"><img src=src/images/blue_guy.png width=\"150\"></p>\n                <div class=\"player2Name\"><p>Partner</p></div>\n            </div>\n            </div>\n        </div>\n        </div>\n    </div>",
    "response": null,
    "task": "practice_choice",
    "trial_type": "html-keyboard-response",
    "trial_index": 19,
    "time_elapsed": 437837,
    "internal_node_id": "0.0-8.0-0.0",
    "participant_id": "5f2f8574ff256b37b1970220",
    "player_num": 0,
    "trial_num": 1,
    "binned_trial_num": 1,
    "reward": null,
    "prop_return": 0,
    "prop_return_noise": -0.0019335049357945859,
    "PID": null
  },
  {
    "rt": null,
    "stimulus": "<div class=\"gameHeader\">\n        </div>\n    <div class=\"offerCard\" style=\"height: auto; min-height: 90vh; overflow-y: auto; display: flex; justify-content: center;\">\n        <div class=\"bidOffer\" style=\"overflow-y: auto; display: flex; flex-direction: column; justify-content: center;\"><div class=\"outcomeText\"><p style=\"font-family: 'Times New Roman', Times, serif; font-size: 18px;\"><strong>You did not respond in time!</strong></p></div></div>\n    </div>",
    "response": null,
    "trial_type": "html-keyboard-response",
    "trial_index": 20,
    "time_elapsed": 440802,
    "internal_node_id": "0.0-8.0-1.0",
    "participant_id": "5f2f8574ff256b37b1970220",
    "PID": null
  },
  {
    "rt": null,
    "stimulus": "<div class=\"gameHeader\">\n        </div>\n    <div class=\"offerCard\" style=\"height: auto; min-height: 90vh; overflow-y: auto; display: flex; justify-content: center;\">\n        <div class=\"bidOffer\" style=\"overflow-y: auto; display: flex; flex-direction: column; justify-content: center;\"><div style=\"display: flex; flex-direction: column; align-items: center; justify-content: center; width: 100%;\">\n            <div class=\"player2Card\" style=\"margin-bottom: 20px;\">\n                <p class=\"player2Image\"><img src=src/images/blue_guy.png width=\"150\"></p>\n                <div class=\"player2Name\"><p>Partner</p></div>\n            </div>\n\n            <div style=\"background-color: #f8f9fa; border-radius: 10px; padding: 15px; text-align: center; max-width: 400px;\">\n                <p style=\"font-family: 'Times New Roman', Times, serif; font-size: 18px; margin: 0; color: #d9534f;\"><strong>You did not respond in time!</strong></p>\n                <p style=\"font-family: 'Times New Roman', Times, serif; font-size: 18px; margin: 10px 0 0 0;\">You earned <strong>$0.00</strong></p>\n                <p style=\"font-family: 'Times New Roman', Times, serif; font-size: 18px; margin: 5px 0 0 0;\">Partner earned <strong>$0.00</strong>.</p>\n            </div>\n        </div></div>\n    </div>",
    "response": null,
    "trial_type": "html-keyboard-response",
    "trial_index": 21,
    "time_elapsed": 444805,
    "internal_node_id": "0.0-8.0-2.0",
    "participant_id": "5f2f8574ff256b37b1970220",
    "PID": null
  },
  {
    "rt": null,
    "stimulus": "<div class=\"gameHeader\">\n        </div>\n    <div class=\"offerCard\" style=\"height: auto; min-height: 90vh; overflow-y: auto; display: flex; justify-content: center;\">\n        <div class=\"bidOffer\" style=\"overflow-y: auto; display: flex; flex-direction: column; justify-content: center;\"><div class=\"outcomeText\"><p style=\"font-family: 'Times New Roman', Times, serif; font-size: 18px;\">The next round will begin momentarily.</p>\n\n    <p style=\"font-family: 'Times New Roman', Times, serif; font-size: 18px;\">Please wait.</p></div></div>\n    </div>",
    "response": null,
    "trial_type": "html-keyboard-response",
    "trial_index": 22,
    "time_elapsed": 447691,
    "internal_node_id": "0.0-8.0-3.0-0.0",
    "participant_id": "5f2f8574ff256b37b1970220",
    "PID": null
  },
  {
    "rt": 1309,
    "stimulus": "<div class=\"gameHeader\">\n        </div>\n    <div class=\"offerCard\" style=\"height: auto; min-height: 90vh; overflow-y: auto; display: flex; justify-content: center;\">\n        <div class=\"bidOffer\" style=\"overflow-y: auto; display: flex; flex-direction: column; justify-content: center;\">\n        <div class=\"offers\">\n        <div class=\"textPrompt\"><p style=\"font-family: 'Times New Roman', Times, serif; font-size: 18px;\">How much money do you want\n        <br>to give Partner?</p></div>\n            <div class =\"trustElements\">\n            <div class=\"player1Card\"><p class=\"player1Image\"><img src=\"src/images/gray_guy.png\" width=\"150\"></p>\n                <div class=\"player1Name\"><p style=\"font-family: 'Times New Roman', Times, serif; font-size: 18px;\">Nisz06</p></div>\n            </div>\n\n                <div class=\"investmentCard\">\n                    <div id=\"leftBlock\" class=\"leftBlock\">\n                        <p style=\"font-family: 'Times New Roman', Times, serif; font-size: 18px;\">$1</p>\n                        <p style=\"font-family: 'Times New Roman', Times, serif; font-size: 18px; margin-top: 5px; color: #666;\">Press \"F\" key</p>\n                    </div>\n                    <div id=\"rightBlock\" class=\"rightBlock\">\n                        <p style=\"font-family: 'Times New Roman', Times, serif; font-size: 18px;\">$10</p>\n                        <p style=\"font-family: 'Times New Roman', Times, serif; font-size: 18px; margin-top: 5px; color: #666;\">Press \"J\" key</p>\n                    </div>\n                </div>\n\n            <div class=\"player2Card\"><p class=\"player2Image\"><img src=src/images/yellow_guy.png width=\"150\"></p>\n                <div class=\"player2Name\"><p>Partner</p></div>\n            </div>\n            </div>\n        </div>\n        </div>\n    </div>",
    "response": "f",
    "task": "practice_choice",
    "trial_type": "html-keyboard-response",
    "trial_index": 23,
    "time_elapsed": 449001,
    "internal_node_id": "0.0-8.0-0.1",
    "participant_id": "5f2f8574ff256b37b1970220",
    "choice": 1,
    "player_num": 1,
    "trial_num": 2,
    "binned_trial_num": 1,
    "reward": 0,
    "prop_return": 0,
    "prop_return_noise": 0.0014620656027805096,
    "PID": null
  },
  {
    "rt": null,
    "stimulus": "<div class=\"gameHeader\">\n        </div>\n    <div class=\"offerCard\" style=\"height: auto; min-height: 90vh; overflow-y: auto; display: flex; justify-content: center;\">\n        <div class=\"bidOffer\" style=\"overflow-y: auto; display: flex; flex-direction: column; justify-content: center;\"><div class=\"outcomeText\"><p style=\"font-family: 'Times New Roman', Times, serif; font-size: 18px;\">You selected $1.00</p>\n\n        <p style=\"font-family: 'Times New Roman', Times, serif; font-size: 18px;\"><br>Your partner is deciding how much to return.</p></div></div>\n    </div>",
    "response": null,
    "trial_type": "html-keyboard-response",
    "trial_index": 24,
    "time_elapsed": 451416,
    "internal_node_id": "0.0-8.0-1.1",
    "participant_id": "5f2f8574ff256b37b1970220",
    "PID": null
  },
  {
    "rt": null,
    "stimulus": "<div class=\"gameHeader\">\n        </div>\n    <div class=\"offerCard\" style=\"height: auto; min-height: 90vh; overflow-y: auto; display: flex; justify-content: center;\">\n        <div class=\"bidOffer\" style=\"overflow-y: auto; display: flex; flex-direction: column; justify-content: center;\"><div style=\"display: flex; flex-direction: column; align-items: center; justify-content: center; width: 100%;\">\n            <div class=\"player2Card\" style=\"margin-bottom: 20px;\">\n                <p class=\"player2Image\"><img src=src/images/yellow_guy.png width=\"150\"></p>\n                <div class=\"player2Name\"><p>Partner</p></div>\n            </div>\n\n            <div style=\"background-color: #f8f9fa; border-radius: 10px; padding: 15px; text-align: center; max-width: 400px;\">\n                <p style=\"font-family: 'Times New Roman', Times, serif; font-size: 18px; margin: 0;\">Partner received <strong>$4.00</strong> and returned <strong>$0.00</strong> to you.</p>\n            </div>\n        </div></div>\n    </div>",
    "response": null,
    "trial_type": "html-keyboard-response",
    "trial_index": 25,
    "time_elapsed": 455418,
    "internal_node_id": "0.0-8.0-2.1",
    "participant_id": "5f2f8574ff256b37b1970220",
    "PID": null
  },
  {
    "rt": null,
    "stimulus": "<div class=\"gameHeader\">\n        </div>\n    <div class=\"offerCard\" style=\"height: auto; min-height: 90vh; overflow-y: auto; display: flex; justify-content: center;\">\n        <div class=\"bidOffer\" style=\"overflow-y: auto; display: flex; flex-direction: column; justify-content: center;\"><div class=\"outcomeText\"><p style=\"font-family: 'Times New Roman', Times, serif; font-size: 18px;\">The next round will begin momentarily.</p>\n\n    <p style=\"font-family: 'Times New Roman', Times, serif; font-size: 18px;\">Please wait.</p></div></div>\n    </div>",
    "response": null,
    "trial_type": "html-keyboard-response",
    "trial_index": 26,
    "time_elapsed": 457658,
    "internal_node_id": "0.0-8.0-3.1-0.1",
    "participant_id": "5f2f8574ff256b37b1970220",
    "PID": null
  },
  {
    "rt": 754,
    "stimulus": "<div class=\"gameHeader\">\n        </div>\n    <div class=\"offerCard\" style=\"height: auto; min-height: 90vh; overflow-y: auto; display: flex; justify-content: center;\">\n        <div class=\"bidOffer\" style=\"overflow-y: auto; display: flex; flex-direction: column; justify-content: center;\">\n        <div class=\"offers\">\n        <div class=\"textPrompt\"><p style=\"font-family: 'Times New Roman', Times, serif; font-size: 18px;\">How much money do you want\n        <br>to give Partner?</p></div>\n            <div class =\"trustElements\">\n            <div class=\"player1Card\"><p class=\"player1Image\"><img src=\"src/images/gray_guy.png\" width=\"150\"></p>\n                <div class=\"player1Name\"><p style=\"font-family: 'Times New Roman', Times, serif; font-size: 18px;\">Nisz06</p></div>\n            </div>\n\n                <div class=\"investmentCard\">\n                    <div id=\"leftBlock\" class=\"leftBlock\">\n                        <p style=\"font-family: 'Times New Roman', Times, serif; font-size: 18px;\">$1</p>\n                        <p style=\"font-family: 'Times New Roman', Times, serif; font-size: 18px; margin-top: 5px; color: #666;\">Press \"F\" key</p>\n                    </div>\n                    <div id=\"rightBlock\" class=\"rightBlock\">\n                        <p style=\"font-family: 'Times New Roman', Times, serif; font-size: 18px;\">$10</p>\n                        <p style=\"font-family: 'Times New Roman', Times, serif; font-size: 18px; margin-top: 5px; color: #666;\">Press \"J\" key</p>\n                    </div>\n                </div>\n\n            <div class=\"player2Card\"><p class=\"player2Image\"><img src=src/images/green_guy.png width=\"150\"></p>\n                <div class=\"player2Name\"><p>Partner</p></div>\n            </div>\n            </div>\n        </div>\n        </div>\n    </div>",
    "response": "f",
    "task": "practice_choice",
    "trial_type": "html-keyboard-response",
    "trial_index": 27,
    "time_elapsed": 458413,
    "internal_node_id": "0.0-8.0-0.2",
    "participant_id": "5f2f8574ff256b37b1970220",
    "choice": 1,
    "player_num": 2,
    "trial_num": 3,
    "binned_trial_num": 1,
    "reward": 0.4,
    "prop_return": 0.11098288068259632,
    "prop_return_noise": -0.008376748572070564,
    "PID": null
  },
  {
    "rt": null,
    "stimulus": "<div class=\"gameHeader\">\n        </div>\n    <div class=\"offerCard\" style=\"height: auto; min-height: 90vh; overflow-y: auto; display: flex; justify-content: center;\">\n        <div class=\"bidOffer\" style=\"overflow-y: auto; display: flex; flex-direction: column; justify-content: center;\"><div class=\"outcomeText\"><p style=\"font-family: 'Times New Roman', Times, serif; font-size: 18px;\">You selected $1.00</p>\n\n        <p style=\"font-family: 'Times New Roman', Times, serif; font-size: 18px;\"><br>Your partner is deciding how much to return.</p></div></div>\n    </div>",
    "response": null,
    "trial_type": "html-keyboard-response",
    "trial_index": 28,
    "time_elapsed": 462003,
    "internal_node_id": "0.0-8.0-1.2",
    "participant_id": "5f2f8574ff256b37b1970220",
    "PID": null
  },
  {
    "rt": null,
    "stimulus": "<div class=\"gameHeader\">\n        </div>\n    <div class=\"offerCard\" style=\"height: auto; min-height: 90vh; overflow-y: auto; display: flex; justify-content: center;\">\n        <div class=\"bidOffer\" style=\"overflow-y: auto; display: flex; flex-direction: column; justify-content: center;\"><div style=\"display: flex; flex-direction: column; align-items: center; justify-content: center; width: 100%;\">\n            <div class=\"player2Card\" style=\"margin-bottom: 20px;\">\n                <p class=\"player2Image\"><img src=src/images/green_guy.png width=\"150\"></p>\n                <div class=\"player2Name\"><p>Partner</p></div>\n            </div>\n\n            <div style=\"background-color: #f8f9fa; border-radius: 10px; padding: 15px; text-align: center; max-width: 400px;\">\n                <p style=\"font-family: 'Times New Roman', Times, serif; font-size: 18px; margin: 0;\">Partner received <strong>$4.00</strong> and returned <strong>$0.40</strong> to you.</p>\n            </div>\n        </div></div>\n    </div>",
    "response": null,
    "trial_type": "html-keyboard-response",
    "trial_index": 29,
    "time_elapsed": 466013,
    "internal_node_id": "0.0-8.0-2.2",
    "participant_id": "5f2f8574ff256b37b1970220",
    "PID": null
  },
  {
    "rt": null,
    "stimulus": "<div class=\"gameHeader\">\n        </div>\n    <div class=\"offerCard\" style=\"height: auto; min-height: 90vh; overflow-y: auto; display: flex; justify-content: center;\">\n        <div class=\"bidOffer\" style=\"overflow-y: auto; display: flex; flex-direction: column; justify-content: center;\"><div class=\"outcomeText\"><p style=\"font-family: 'Times New Roman', Times, serif; font-size: 18px;\">The next round will begin momentarily.</p>\n\n    <p style=\"font-family: 'Times New Roman', Times, serif; font-size: 18px;\">Please wait.</p></div></div>\n    </div>",
    "response": null,
    "trial_type": "html-keyboard-response",
    "trial_index": 30,
    "time_elapsed": 468464,
    "internal_node_id": "0.0-8.0-3.2-0.2",
    "participant_id": "5f2f8574ff256b37b1970220",
    "PID": null
  },
  {
    "rt": 1842,
    "stimulus": "<div class=\"gameHeader\">\n        </div>\n    <div class=\"offerCard\" style=\"height: auto; min-height: 90vh; overflow-y: auto; display: flex; justify-content: center;\">\n        <div class=\"bidOffer\" style=\"overflow-y: auto; display: flex; flex-direction: column; justify-content: center;\">\n        <div class=\"offers\">\n        <div class=\"textPrompt\"><p style=\"font-family: 'Times New Roman', Times, serif; font-size: 18px;\">How much money do you want\n        <br>to give Partner?</p></div>\n            <div class =\"trustElements\">\n            <div class=\"player1Card\"><p class=\"player1Image\"><img src=\"src/images/gray_guy.png\" width=\"150\"></p>\n                <div class=\"player1Name\"><p style=\"font-family: 'Times New Roman', Times, serif; font-size: 18px;\">Nisz06</p></div>\n            </div>\n\n                <div class=\"investmentCard\">\n                    <div id=\"leftBlock\" class=\"leftBlock\">\n                        <p style=\"font-family: 'Times New Roman', Times, serif; font-size: 18px;\">$1</p>\n                        <p style=\"font-family: 'Times New Roman', Times, serif; font-size: 18px; margin-top: 5px; color: #666;\">Press \"F\" key</p>\n                    </div>\n                    <div id=\"rightBlock\" class=\"rightBlock\">\n                        <p style=\"font-family: 'Times New Roman', Times, serif; font-size: 18px;\">$10</p>\n                        <p style=\"font-family: 'Times New Roman', Times, serif; font-size: 18px; margin-top: 5px; color: #666;\">Press \"J\" key</p>\n                    </div>\n                </div>\n\n            <div class=\"player2Card\"><p class=\"player2Image\"><img src=src/images/red_guy.png width=\"150\"></p>\n                <div class=\"player2Name\"><p>Partner</p></div>\n            </div>\n            </div>\n        </div>\n        </div>\n    </div>",
    "response": "j",
    "task": "practice_choice",
    "trial_type": "html-keyboard-response",
    "trial_index": 31,
    "time_elapsed": 470308,
    "internal_node_id": "0.0-8.0-0.3",
    "participant_id": "5f2f8574ff256b37b1970220",
    "choice": 10,
    "player_num": 3,
    "trial_num": 4,
    "binned_trial_num": 2,
    "reward": 4.8,
    "prop_return": 0.1133227133255334,
    "prop_return_noise": 0.006865347260558898,
    "PID": null
  },
  {
    "rt": null,
    "stimulus": "<div class=\"gameHeader\">\n        </div>\n    <div class=\"offerCard\" style=\"height: auto; min-height: 90vh; overflow-y: auto; display: flex; justify-content: center;\">\n        <div class=\"bidOffer\" style=\"overflow-y: auto; display: flex; flex-direction: column; justify-content: center;\"><div class=\"outcomeText\"><p style=\"font-family: 'Times New Roman', Times, serif; font-size: 18px;\">You selected $10.00</p>\n\n        <p style=\"font-family: 'Times New Roman', Times, serif; font-size: 18px;\"><br>Your partner is deciding how much to return.</p></div></div>\n    </div>",
    "response": null,
    "trial_type": "html-keyboard-response",
    "trial_index": 32,
    "time_elapsed": 472587,
    "internal_node_id": "0.0-8.0-1.3",
    "participant_id": "5f2f8574ff256b37b1970220",
    "PID": null
  },
  {
    "rt": null,
    "stimulus": "<div class=\"gameHeader\">\n        </div>\n    <div class=\"offerCard\" style=\"height: auto; min-height: 90vh; overflow-y: auto; display: flex; justify-content: center;\">\n        <div class=\"bidOffer\" style=\"overflow-y: auto; display: flex; flex-direction: column; justify-content: center;\"><div style=\"display: flex; flex-direction: column; align-items: center; justify-content: center; width: 100%;\">\n            <div class=\"player2Card\" style=\"margin-bottom: 20px;\">\n                <p class=\"player2Image\"><img src=src/images/red_guy.png width=\"150\"></p>\n                <div class=\"player2Name\"><p>Partner</p></div>\n            </div>\n\n            <div style=\"background-color: #f8f9fa; border-radius: 10px; padding: 15px; text-align: center; max-width: 400px;\">\n                <p style=\"font-family: 'Times New Roman', Times, serif; font-size: 18px; margin: 0;\">Partner received <strong>$40.00</strong> and returned <strong>$4.80</strong> to you.</p>\n            </div>\n        </div></div>\n    </div>",
    "response": null,
    "trial_type": "html-keyboard-response",
    "trial_index": 33,
    "time_elapsed": 476597,
    "internal_node_id": "0.0-8.0-2.3",
    "participant_id": "5f2f8574ff256b37b1970220",
    "PID": null
  },
  {
    "rt": 4715,
    "stimulus": "<div class=\"gameHeader\">\n        </div>\n    <div class=\"offerCard\">\n        <div class=\"bidOffer\">\n            <div class=\"instructionsText\">\n        <div class =\"wrapTextBox\">\n            <p><strong>Practice Complete!</strong></p>\n            <p>You have finished the practice phase.</p>\n            <p>The real experiment will now begin. Your decisions will now count toward your final payment.</p>\n            <p>During the practice phase, four participants (<strong>KeJo05</strong>, <strong>BaSa05</strong>, <strong>GePl01</strong>, <strong>ClMa07</strong>) have been randomly matched as your partners for this experiment.</p>\n            <p>Press the spacebar to start the experiment.</p>\n        </div>\n        </div>\n        </div>\n    </div>",
    "response": " ",
    "trial_type": "html-keyboard-response",
    "trial_index": 34,
    "time_elapsed": 481313,
    "internal_node_id": "0.0-9.0",
    "participant_id": "5f2f8574ff256b37b1970220",
    "PID": null
  },
  {
    "rt": null,
    "stimulus": "<div class=\"gameHeader\">\n        </div>\n    <div class=\"offerCard\">\n        <div class=\"bidOffer\">\n            <div class=\"instructionsText\">\n        <div class =\"wrapTextBox\">\n            <p style=\"font-family: 'Times New Roman', Times, serif; font-size: 18px;\"><strong>Preparing main experiment...</strong></p>\n        </div>\n        </div>\n        </div>\n    </div>",
    "response": null,
    "trial_type": "html-keyboard-response",
    "trial_index": 35,
    "time_elapsed": 482815,
    "internal_node_id": "0.0-10.0",
    "participant_id": "5f2f8574ff256b37b1970220",
    "PID": null
  },
  {
    "rt": 1624,
    "stimulus": "<div class=\"gameHeader\">\n        </div>\n    <div class=\"offerCard\" style=\"height: auto; min-height: 90vh; overflow-y: auto; display: flex; justify-content: center;\">\n        <div class=\"bidOffer\" style=\"overflow-y: auto; display: flex; flex-direction: column; justify-content: center;\">\n        <div class=\"offers\">\n        <div class=\"textPrompt\"><p style=\"font-family: 'Times New Roman', Times, serif; font-size: 18px;\">How much money do you want\n        <br>to give ClMa07?</p></div>\n            <div class =\"trustElements\">\n            <div class=\"player1Card\"><p class=\"player1Image\"><img src=\"src/images/gray_guy.png\" width=\"150\"></p>\n                <div class=\"player1Name\"><p style=\"font-family: 'Times New Roman', Times, serif; font-size: 18px;\">Nisz06</p></div>\n            </div>\n\n                <div class=\"investmentCard\">\n                    <div id=\"leftBlock\" class=\"leftBlock\">\n                        <p style=\"font-family: 'Times New Roman', Times, serif; font-size: 18px;\">$1</p>\n                        <p style=\"font-family: 'Times New Roman', Times, serif; font-size: 18px; margin-top: 5px; color: #666;\">Press \"F\" key</p>\n                    </div>\n                    <div id=\"rightBlock\" class=\"rightBlock\">\n                        <p style=\"font-family: 'Times New Roman', Times, serif; font-size: 18px;\">$10</p>\n                        <p style=\"font-family: 'Times New Roman', Times, serif; font-size: 18px; margin-top: 5px; color: #666;\">Press \"J\" key</p>\n                    </div>\n                </div>\n\n            <div class=\"player2Card\"><p class=\"player2Image\"><img src=src/images/red_guy.png width=\"150\"></p>\n                <div class=\"player2Name\"><p>ClMa07</p></div>\n            </div>\n            </div>\n        </div>\n        </div>\n    </div>",
    "response": "j",
    "task": "make_choice",
    "trial_type": "html-keyboard-response",
    "trial_index": 36,
    "time_elapsed": 484440,
    "internal_node_id": "0.0-11.0-0.0-0.0-0.0",
    "participant_id": "5f2f8574ff256b37b1970220",
    "choice": 10,
    "player_num": 3,
    "trial_num": 1,
    "binned_trial_num": 1,
    "reward": 15.5,
    "prop_return": 0.401446276337741,
    "prop_return_noise": -0.01396241832060487,
    "PID": null
  },
  {
    "rt": null,
    "stimulus": "<div class=\"gameHeader\">\n        </div>\n    <div class=\"offerCard\" style=\"height: auto; min-height: 90vh; overflow-y: auto; display: flex; justify-content: center;\">\n        <div class=\"bidOffer\" style=\"overflow-y: auto; display: flex; flex-direction: column; justify-content: center;\"><div class=\"outcomeText\"><p style=\"font-family: 'Times New Roman', Times, serif; font-size: 18px;\">You selected $10.00</p>\n\n        <p style=\"font-family: 'Times New Roman', Times, serif; font-size: 18px;\"><br>Your partner is deciding how much to return.</p></div></div>\n    </div>",
    "response": null,
    "trial_type": "html-keyboard-response",
    "trial_index": 37,
    "time_elapsed": 488217,
    "internal_node_id": "0.0-11.0-0.0-0.0-1.0",
    "participant_id": "5f2f8574ff256b37b1970220",
    "PID": null
  },
  {
    "rt": null,
    "stimulus": "<div class=\"gameHeader\">\n        </div>\n    <div class=\"offerCard\" style=\"height: auto; min-height: 90vh; overflow-y: auto; display: flex; justify-content: center;\">\n        <div class=\"bidOffer\" style=\"overflow-y: auto; display: flex; flex-direction: column; justify-content: center;\"><div style=\"display: flex; flex-direction: column; align-items: center; justify-content: center; width: 100%;\">\n            <div class=\"player2Card\" style=\"margin-bottom: 20px;\">\n                <p class=\"player2Image\"><img src=src/images/red_guy.png width=\"150\"></p>\n                <div class=\"player2Name\"><p>ClMa07</p></div>\n            </div>\n\n            <div style=\"background-color: #f8f9fa; border-radius: 10px; padding: 15px; text-align: center; max-width: 400px;\">\n                <p style=\"font-family: 'Times New Roman', Times, serif; font-size: 18px; margin: 0;\">ClMa07 received <strong>$40.00</strong> and returned <strong>$15.50</strong> to you.</p>\n            </div>\n        </div></div>\n    </div>",
    "response": null,
    "trial_type": "html-keyboard-response",
    "trial_index": 38,
    "time_elapsed": 492228,
    "internal_node_id": "0.0-11.0-0.0-0.0-2.0",
    "participant_id": "5f2f8574ff256b37b1970220",
    "PID": null
  },
  {
    "rt": null,
    "stimulus": "<div class=\"gameHeader\">\n        </div>\n    <div class=\"offerCard\" style=\"height: auto; min-height: 90vh; overflow-y: auto; display: flex; justify-content: center;\">\n        <div class=\"bidOffer\" style=\"overflow-y: auto; display: flex; flex-direction: column; justify-content: center;\"><div class=\"outcomeText\"><p style=\"font-family: 'Times New Roman', Times, serif; font-size: 18px;\">The next round will begin momentarily.</p>\n\n    <p style=\"font-family: 'Times New Roman', Times, serif; font-size: 18px;\">Please wait.</p></div></div>\n    </div>",
    "response": null,
    "trial_type": "html-keyboard-response",
    "trial_index": 39,
    "time_elapsed": 495858,
    "internal_node_id": "0.0-11.0-0.0-0.0-3.0-0.0",
    "participant_id": "5f2f8574ff256b37b1970220",
    "PID": null
  },
  {
    "rt": 703,
    "stimulus": "<div class=\"gameHeader\">\n        </div>\n    <div class=\"offerCard\" style=\"height: auto; min-height: 90vh; overflow-y: auto; display: flex; justify-content: center;\">\n        <div class=\"bidOffer\" style=\"overflow-y: auto; display: flex; flex-direction: column; justify-content: center;\">\n        <div class=\"offers\">\n        <div class=\"textPrompt\"><p style=\"font-family: 'Times New Roman', Times, serif; font-size: 18px;\">How much money do you want\n        <br>to give GePl01?</p></div>\n            <div class =\"trustElements\">\n            <div class=\"player1Card\"><p class=\"player1Image\"><img src=\"src/images/gray_guy.png\" width=\"150\"></p>\n                <div class=\"player1Name\"><p style=\"font-family: 'Times New Roman', Times, serif; font-size: 18px;\">Nisz06</p></div>\n            </div>\n\n                <div class=\"investmentCard\">\n                    <div id=\"leftBlock\" class=\"leftBlock\">\n                        <p style=\"font-family: 'Times New Roman', Times, serif; font-size: 18px;\">$1</p>\n                        <p style=\"font-family: 'Times New Roman', Times, serif; font-size: 18px; margin-top: 5px; color: #666;\">Press \"F\" key</p>\n                    </div>\n                    <div id=\"rightBlock\" class=\"rightBlock\">\n                        <p style=\"font-family: 'Times New Roman', Times, serif; font-size: 18px;\">$10</p>\n                        <p style=\"font-family: 'Times New Roman', Times, serif; font-size: 18px; margin-top: 5px; color: #666;\">Press \"J\" key</p>\n                    </div>\n                </div>\n\n            <div class=\"player2Card\"><p class=\"player2Image\"><img src=src/images/green_guy.png width=\"150\"></p>\n                <div class=\"player2Name\"><p>GePl01</p></div>\n            </div>\n            </div>\n        </div>\n        </div>\n    </div>",
    "response": "j",
    "task": "make_choice",
    "trial_type": "html-keyboard-response",
    "trial_index": 40,
    "time_elapsed": 496562,
    "internal_node_id": "0.0-11.0-0.0-1.0-0.0",
    "participant_id": "5f2f8574ff256b37b1970220",
    "choice": 10,
    "player_num": 2,
    "trial_num": 2,
    "binned_trial_num": 1,
    "reward": 16.6,
    "prop_return": 0.4233738842384282,
    "prop_return_noise": -0.008234873457482148,
    "PID": null
  },
  {
    "rt": null,
    "stimulus": "<div class=\"gameHeader\">\n        </div>\n    <div class=\"offerCard\" style=\"height: auto; min-height: 90vh; overflow-y: auto; display: flex; justify-content: center;\">\n        <div class=\"bidOffer\" style=\"overflow-y: auto; display: flex; flex-direction: column; justify-content: center;\"><div class=\"outcomeText\"><p style=\"font-family: 'Times New Roman', Times, serif; font-size: 18px;\">You selected $10.00</p>\n\n        <p style=\"font-family: 'Times New Roman', Times, serif; font-size: 18px;\"><br>Your partner is deciding how much to return.</p></div></div>\n    </div>",
    "response": null,
    "trial_type": "html-keyboard-response",
    "trial_index": 41,
    "time_elapsed": 499063,
    "internal_node_id": "0.0-11.0-0.0-1.0-1.0",
    "participant_id": "5f2f8574ff256b37b1970220",
    "PID": null
  },
  {
    "rt": null,
    "stimulus": "<div class=\"gameHeader\">\n        </div>\n    <div class=\"offerCard\" style=\"height: auto; min-height: 90vh; overflow-y: auto; display: flex; justify-content: center;\">\n        <div class=\"bidOffer\" style=\"overflow-y: auto; display: flex; flex-direction: column; justify-content: center;\"><div style=\"display: flex; flex-direction: column; align-items: center; justify-content: center; width: 100%;\">\n            <div class=\"player2Card\" style=\"margin-bottom: 20px;\">\n                <p class=\"player2Image\"><img src=src/images/green_guy.png width=\"150\"></p>\n                <div class=\"player2Name\"><p>GePl01</p></div>\n            </div>\n\n            <div style=\"background-color: #f8f9fa; border-radius: 10px; padding: 15px; text-align: center; max-width: 400px;\">\n                <p style=\"font-family: 'Times New Roman', Times, serif; font-size: 18px; margin: 0;\">GePl01 received <strong>$40.00</strong> and returned <strong>$16.60</strong> to you.</p>\n            </div>\n        </div></div>\n    </div>",
    "response": null,
    "trial_type": "html-keyboard-response",
    "trial_index": 42,
    "time_elapsed": 503072,
    "internal_node_id": "0.0-11.0-0.0-1.0-2.0",
    "participant_id": "5f2f8574ff256b37b1970220",
    "PID": null
  },
  {
    "rt": null,
    "stimulus": "<div class=\"gameHeader\">\n        </div>\n    <div class=\"offerCard\" style=\"height: auto; min-height: 90vh; overflow-y: auto; display: flex; justify-content: center;\">\n        <div class=\"bidOffer\" style=\"overflow-y: auto; display: flex; flex-direction: column; justify-content: center;\"><div class=\"outcomeText\"><p style=\"font-family: 'Times New Roman', Times, serif; font-size: 18px;\">The next round will begin momentarily.</p>\n\n    <p style=\"font-family: 'Times New Roman', Times, serif; font-size: 18px;\">Please wait.</p></div></div>\n    </div>",
    "response": null,
    "trial_type": "html-keyboard-response",
    "trial_index": 43,
    "time_elapsed": 506817,
    "internal_node_id": "0.0-11.0-0.0-1.0-3.0-0.0",
    "participant_id": "5f2f8574ff256b37b1970220",
    "PID": null
  },
  {
    "rt": 450,
    "stimulus": "<div class=\"gameHeader\">\n        </div>\n    <div class=\"offerCard\" style=\"height: auto; min-height: 90vh; overflow-y: auto; display: flex; justify-content: center;\">\n        <div class=\"bidOffer\" style=\"overflow-y: auto; display: flex; flex-direction: column; justify-content: center;\">\n        <div class=\"offers\">\n        <div class=\"textPrompt\"><p style=\"font-family: 'Times New Roman', Times, serif; font-size: 18px;\">How much money do you want\n        <br>to give BaSa05?</p></div>\n            <div class =\"trustElements\">\n            <div class=\"player1Card\"><p class=\"player1Image\"><img src=\"src/images/gray_guy.png\" width=\"150\"></p>\n                <div class=\"player1Name\"><p style=\"font-family: 'Times New Roman', Times, serif; font-size: 18px;\">Nisz06</p></div>\n            </div>\n\n                <div class=\"investmentCard\">\n                    <div id=\"leftBlock\" class=\"leftBlock\">\n                        <p style=\"font-family: 'Times New Roman', Times, serif; font-size: 18px;\">$1</p>\n                        <p style=\"font-family: 'Times New Roman', Times, serif; font-size: 18px; margin-top: 5px; color: #666;\">Press \"F\" key</p>\n                    </div>\n                    <div id=\"rightBlock\" class=\"rightBlock\">\n                        <p style=\"font-family: 'Times New Roman', Times, serif; font-size: 18px;\">$10</p>\n                        <p style=\"font-family: 'Times New Roman', Times, serif; font-size: 18px; margin-top: 5px; color: #666;\">Press \"J\" key</p>\n                    </div>\n                </div>\n\n            <div class=\"player2Card\"><p class=\"player2Image\"><img src=src/images/yellow_guy.png width=\"150\"></p>\n                <div class=\"player2Name\"><p>BaSa05</p></div>\n            </div>\n            </div>\n        </div>\n        </div>\n    </div>",
    "response": "j",
    "task": "make_choice",
    "trial_type": "html-keyboard-response",
    "trial_index": 44,
    "time_elapsed": 507268,
    "internal_node_id": "0.0-11.0-0.0-2.0-0.0",
    "participant_id": "5f2f8574ff256b37b1970220",
    "choice": 10,
    "player_num": 1,
    "trial_num": 3,
    "binned_trial_num": 1,
    "reward": 10.5,
    "prop_return": 0.2579130438171644,
    "prop_return_noise": 0.0038314947811298634,
    "PID": null
  },
  {
    "rt": null,
    "stimulus": "<div class=\"gameHeader\">\n        </div>\n    <div class=\"offerCard\" style=\"height: auto; min-height: 90vh; overflow-y: auto; display: flex; justify-content: center;\">\n        <div class=\"bidOffer\" style=\"overflow-y: auto; display: flex; flex-direction: column; justify-content: center;\"><div class=\"outcomeText\"><p style=\"font-family: 'Times New Roman', Times, serif; font-size: 18px;\">You selected $10.00</p>\n\n        <p style=\"font-family: 'Times New Roman', Times, serif; font-size: 18px;\"><br>Your partner is deciding how much to return.</p></div></div>\n    </div>",
    "response": null,
    "trial_type": "html-keyboard-response",
    "trial_index": 45,
    "time_elapsed": 510333,
    "internal_node_id": "0.0-11.0-0.0-2.0-1.0",
    "participant_id": "5f2f8574ff256b37b1970220",
    "PID": null
  },
  {
    "rt": null,
    "stimulus": "<div class=\"gameHeader\">\n        </div>\n    <div class=\"offerCard\" style=\"height: auto; min-height: 90vh; overflow-y: auto; display: flex; justify-content: center;\">\n        <div class=\"bidOffer\" style=\"overflow-y: auto; display: flex; flex-direction: column; justify-content: center;\"><div style=\"display: flex; flex-direction: column; align-items: center; justify-content: center; width: 100%;\">\n            <div class=\"player2Card\" style=\"margin-bottom: 20px;\">\n                <p class=\"player2Image\"><img src=src/images/yellow_guy.png width=\"150\"></p>\n                <div class=\"player2Name\"><p>BaSa05</p></div>\n            </div>\n\n            <div style=\"background-color: #f8f9fa; border-radius: 10px; padding: 15px; text-align: center; max-width: 400px;\">\n                <p style=\"font-family: 'Times New Roman', Times, serif; font-size: 18px; margin: 0;\">BaSa05 received <strong>$40.00</strong> and returned <strong>$10.50</strong> to you.</p>\n            </div>\n        </div></div>\n    </div>",
    "response": null,
    "trial_type": "html-keyboard-response",
    "trial_index": 46,
    "time_elapsed": 514336,
    "internal_node_id": "0.0-11.0-0.0-2.0-2.0",
    "participant_id": "5f2f8574ff256b37b1970220",
    "PID": null
  },
  {
    "rt": null,
    "stimulus": "<div class=\"gameHeader\">\n        </div>\n    <div class=\"offerCard\" style=\"height: auto; min-height: 90vh; overflow-y: auto; display: flex; justify-content: center;\">\n        <div class=\"bidOffer\" style=\"overflow-y: auto; display: flex; flex-direction: column; justify-content: center;\"><div class=\"outcomeText\"><p style=\"font-family: 'Times New Roman', Times, serif; font-size: 18px;\">The next round will begin momentarily.</p>\n\n    <p style=\"font-family: 'Times New Roman', Times, serif; font-size: 18px;\">Please wait.</p></div></div>\n    </div>",
    "response": null,
    "trial_type": "html-keyboard-response",
    "trial_index": 47,
    "time_elapsed": 517609,
    "internal_node_id": "0.0-11.0-0.0-2.0-3.0-0.0",
    "participant_id": "5f2f8574ff256b37b1970220",
    "PID": null
  },
  {
    "rt": 740,
    "stimulus": "<div class=\"gameHeader\">\n        </div>\n    <div class=\"offerCard\" style=\"height: auto; min-height: 90vh; overflow-y: auto; display: flex; justify-content: center;\">\n        <div class=\"bidOffer\" style=\"overflow-y: auto; display: flex; flex-direction: column; justify-content: center;\">\n        <div class=\"offers\">\n        <div class=\"textPrompt\"><p style=\"font-family: 'Times New Roman', Times, serif; font-size: 18px;\">How much money do you want\n        <br>to give KeJo05?</p></div>\n            <div class =\"trustElements\">\n            <div class=\"player1Card\"><p class=\"player1Image\"><img src=\"src/images/gray_guy.png\" width=\"150\"></p>\n                <div class=\"player1Name\"><p style=\"font-family: 'Times New Roman', Times, serif; font-size: 18px;\">Nisz06</p></div>\n            </div>\n\n                <div class=\"investmentCard\">\n                    <div id=\"leftBlock\" class=\"leftBlock\">\n                        <p style=\"font-family: 'Times New Roman', Times, serif; font-size: 18px;\">$1</p>\n                        <p style=\"font-family: 'Times New Roman', Times, serif; font-size: 18px; margin-top: 5px; color: #666;\">Press \"F\" key</p>\n                    </div>\n                    <div id=\"rightBlock\" class=\"rightBlock\">\n                        <p style=\"font-family: 'Times New Roman', Times, serif; font-size: 18px;\">$10</p>\n                        <p style=\"font-family: 'Times New Roman', Times, serif; font-size: 18px; margin-top: 5px; color: #666;\">Press \"J\" key</p>\n                    </div>\n                </div>\n\n            <div class=\"player2Card\"><p class=\"player2Image\"><img src=src/images/blue_guy.png width=\"150\"></p>\n                <div class=\"player2Name\"><p>KeJo05</p></div>\n            </div>\n            </div>\n        </div>\n        </div>\n    </div>",
    "response": "j",
    "task": "make_choice",
    "trial_type": "html-keyboard-response",
    "trial_index": 48,
    "time_elapsed": 518351,
    "internal_node_id": "0.0-11.0-0.0-3.0-0.0",
    "participant_id": "5f2f8574ff256b37b1970220",
    "choice": 10,
    "player_num": 0,
    "trial_num": 4,
    "binned_trial_num": 2,
    "reward": 9.2,
    "prop_return": 0.2438393225410817,
    "prop_return_noise": -0.012993398394568636,
    "PID": null
  },
  {
    "rt": null,
    "stimulus": "<div class=\"gameHeader\">\n        </div>\n    <div class=\"offerCard\" style=\"height: auto; min-height: 90vh; overflow-y: auto; display: flex; justify-content: center;\">\n        <div class=\"bidOffer\" style=\"overflow-y: auto; display: flex; flex-direction: column; justify-content: center;\"><div class=\"outcomeText\"><p style=\"font-family: 'Times New Roman', Times, serif; font-size: 18px;\">You selected $10.00</p>\n\n        <p style=\"font-family: 'Times New Roman', Times, serif; font-size: 18px;\"><br>Your partner is deciding how much to return.</p></div></div>\n    </div>",
    "response": null,
    "trial_type": "html-keyboard-response",
    "trial_index": 49,
    "time_elapsed": 520703,
    "internal_node_id": "0.0-11.0-0.0-3.0-1.0",
    "participant_id": "5f2f8574ff256b37b1970220",
    "PID": null
  },
  {
    "rt": null,
    "stimulus": "<div class=\"gameHeader\">\n        </div>\n    <div class=\"offerCard\" style=\"height: auto; min-height: 90vh; overflow-y: auto; display: flex; justify-content: center;\">\n        <div class=\"bidOffer\" style=\"overflow-y: auto; display: flex; flex-direction: column; justify-content: center;\"><div style=\"display: flex; flex-direction: column; align-items: center; justify-content: center; width: 100%;\">\n            <div class=\"player2Card\" style=\"margin-bottom: 20px;\">\n                <p class=\"player2Image\"><img src=src/images/blue_guy.png width=\"150\"></p>\n                <div class=\"player2Name\"><p>KeJo05</p></div>\n            </div>\n\n            <div style=\"background-color: #f8f9fa; border-radius: 10px; padding: 15px; text-align: center; max-width: 400px;\">\n                <p style=\"font-family: 'Times New Roman', Times, serif; font-size: 18px; margin: 0;\">KeJo05 received <strong>$40.00</strong> and returned <strong>$9.20</strong> to you.</p>\n            </div>\n        </div></div>\n    </div>",
    "response": null,
    "trial_type": "html-keyboard-response",
    "trial_index": 50,
    "time_elapsed": 524709,
    "internal_node_id": "0.0-11.0-0.0-3.0-2.0",
    "participant_id": "5f2f8574ff256b37b1970220",
    "PID": null
  },
  {
    "rt": null,
    "stimulus": "<div class=\"gameHeader\">\n        </div>\n    <div class=\"offerCard\" style=\"height: auto; min-height: 90vh; overflow-y: auto; display: flex; justify-content: center;\">\n        <div class=\"bidOffer\" style=\"overflow-y: auto; display: flex; flex-direction: column; justify-content: center;\"><div class=\"outcomeText\"><p style=\"font-family: 'Times New Roman', Times, serif; font-size: 18px;\">The next round will begin momentarily.</p>\n\n    <p style=\"font-family: 'Times New Roman', Times, serif; font-size: 18px;\">Please wait.</p></div></div>\n    </div>",
    "response": null,
    "trial_type": "html-keyboard-response",
    "trial_index": 51,
    "time_elapsed": 527045,
    "internal_node_id": "0.0-11.0-0.0-3.0-3.0-0.0",
    "participant_id": "5f2f8574ff256b37b1970220",
    "PID": null
  },
  {
    "rt": 1182,
    "stimulus": "<div class=\"gameHeader\">\n        </div>\n    <div class=\"offerCard\" style=\"height: auto; min-height: 90vh; overflow-y: auto; display: flex; justify-content: center;\">\n        <div class=\"bidOffer\" style=\"overflow-y: auto; display: flex; flex-direction: column; justify-content: center;\">\n        <div class=\"offers\">\n        <div class=\"textPrompt\"><p style=\"font-family: 'Times New Roman', Times, serif; font-size: 18px;\">How much money do you want\n        <br>to give KeJo05?</p></div>\n            <div class =\"trustElements\">\n            <div class=\"player1Card\"><p class=\"player1Image\"><img src=\"src/images/gray_guy.png\" width=\"150\"></p>\n                <div class=\"player1Name\"><p style=\"font-family: 'Times New Roman', Times, serif; font-size: 18px;\">Nisz06</p></div>\n            </div>\n\n                <div class=\"investmentCard\">\n                    <div id=\"leftBlock\" class=\"leftBlock\">\n                        <p style=\"font-family: 'Times New Roman', Times, serif; font-size: 18px;\">$1</p>\n                        <p style=\"font-family: 'Times New Roman', Times, serif; font-size: 18px; margin-top: 5px; color: #666;\">Press \"F\" key</p>\n                    </div>\n                    <div id=\"rightBlock\" class=\"rightBlock\">\n                        <p style=\"font-family: 'Times New Roman', Times, serif; font-size: 18px;\">$10</p>\n                        <p style=\"font-family: 'Times New Roman', Times, serif; font-size: 18px; margin-top: 5px; color: #666;\">Press \"J\" key</p>\n                    </div>\n                </div>\n\n            <div class=\"player2Card\"><p class=\"player2Image\"><img src=src/images/blue_guy.png width=\"150\"></p>\n                <div class=\"player2Name\"><p>KeJo05</p></div>\n            </div>\n            </div>\n        </div>\n        </div>\n    </div>",
    "response": "j",
    "task": "make_choice",
    "trial_type": "html-keyboard-response",
    "trial_index": 52,
    "time_elapsed": 528228,
    "internal_node_id": "0.0-11.0-0.0-4.0-0.0",
    "participant_id": "5f2f8574ff256b37b1970220",
    "choice": 10,
    "player_num": 0,
    "trial_num": 5,
    "binned_trial_num": 2,
    "reward": 9.4,
    "prop_return": 0.24712503603259,
    "prop_return_noise": -0.011241101709090508,
    "PID": null
  },
  {
    "rt": null,
    "stimulus": "<div class=\"gameHeader\">\n        </div>\n    <div class=\"offerCard\" style=\"height: auto; min-height: 90vh; overflow-y: auto; display: flex; justify-content: center;\">\n        <div class=\"bidOffer\" style=\"overflow-y: auto; display: flex; flex-direction: column; justify-content: center;\"><div class=\"outcomeText\"><p style=\"font-family: 'Times New Roman', Times, serif; font-size: 18px;\">You selected $10.00</p>\n\n        <p style=\"font-family: 'Times New Roman', Times, serif; font-size: 18px;\"><br>Your partner is deciding how much to return.</p></div></div>\n    </div>",
    "response": null,
    "trial_type": "html-keyboard-response",
    "trial_index": 53,
    "time_elapsed": 532037,
    "internal_node_id": "0.0-11.0-0.0-4.0-1.0",
    "participant_id": "5f2f8574ff256b37b1970220",
    "PID": null
  },
  {
    "rt": null,
    "stimulus": "<div class=\"gameHeader\">\n        </div>\n    <div class=\"offerCard\" style=\"height: auto; min-height: 90vh; overflow-y: auto; display: flex; justify-content: center;\">\n        <div class=\"bidOffer\" style=\"overflow-y: auto; display: flex; flex-direction: column; justify-content: center;\"><div style=\"display: flex; flex-direction: column; align-items: center; justify-content: center; width: 100%;\">\n            <div class=\"player2Card\" style=\"margin-bottom: 20px;\">\n                <p class=\"player2Image\"><img src=src/images/blue_guy.png width=\"150\"></p>\n                <div class=\"player2Name\"><p>KeJo05</p></div>\n            </div>\n\n            <div style=\"background-color: #f8f9fa; border-radius: 10px; padding: 15px; text-align: center; max-width: 400px;\">\n                <p style=\"font-family: 'Times New Roman', Times, serif; font-size: 18px; margin: 0;\">KeJo05 received <strong>$40.00</strong> and returned <strong>$9.40</strong> to you.</p>\n            </div>\n        </div></div>\n    </div>",
    "response": null,
    "trial_type": "html-keyboard-response",
    "trial_index": 54,
    "time_elapsed": 536045,
    "internal_node_id": "0.0-11.0-0.0-4.0-2.0",
    "participant_id": "5f2f8574ff256b37b1970220",
    "PID": null
  },
  {
    "rt": null,
    "stimulus": "<div class=\"gameHeader\">\n        </div>\n    <div class=\"offerCard\" style=\"height: auto; min-height: 90vh; overflow-y: auto; display: flex; justify-content: center;\">\n        <div class=\"bidOffer\" style=\"overflow-y: auto; display: flex; flex-direction: column; justify-content: center;\"><div class=\"outcomeText\"><p style=\"font-family: 'Times New Roman', Times, serif; font-size: 18px;\">The next round will begin momentarily.</p>\n\n    <p style=\"font-family: 'Times New Roman', Times, serif; font-size: 18px;\">Please wait.</p></div></div>\n    </div>",
    "response": null,
    "trial_type": "html-keyboard-response",
    "trial_index": 55,
    "time_elapsed": 539660,
    "internal_node_id": "0.0-11.0-0.0-4.0-3.0-0.0",
    "participant_id": "5f2f8574ff256b37b1970220",
    "PID": null
  },
  {
    "rt": 517,
    "stimulus": "<div class=\"gameHeader\">\n        </div>\n    <div class=\"offerCard\" style=\"height: auto; min-height: 90vh; overflow-y: auto; display: flex; justify-content: center;\">\n        <div class=\"bidOffer\" style=\"overflow-y: auto; display: flex; flex-direction: column; justify-content: center;\">\n        <div class=\"offers\">\n        <div class=\"textPrompt\"><p style=\"font-family: 'Times New Roman', Times, serif; font-size: 18px;\">How much money do you want\n        <br>to give BaSa05?</p></div>\n            <div class =\"trustElements\">\n            <div class=\"player1Card\"><p class=\"player1Image\"><img src=\"src/images/gray_guy.png\" width=\"150\"></p>\n                <div class=\"player1Name\"><p style=\"font-family: 'Times New Roman', Times, serif; font-size: 18px;\">Nisz06</p></div>\n            </div>\n\n                <div class=\"investmentCard\">\n                    <div id=\"leftBlock\" class=\"leftBlock\">\n                        <p style=\"font-family: 'Times New Roman', Times, serif; font-size: 18px;\">$1</p>\n                        <p style=\"font-family: 'Times New Roman', Times, serif; font-size: 18px; margin-top: 5px; color: #666;\">Press \"F\" key</p>\n                    </div>\n                    <div id=\"rightBlock\" class=\"rightBlock\">\n                        <p style=\"font-family: 'Times New Roman', Times, serif; font-size: 18px;\">$10</p>\n                        <p style=\"font-family: 'Times New Roman', Times, serif; font-size: 18px; margin-top: 5px; color: #666;\">Press \"J\" key</p>\n                    </div>\n                </div>\n\n            <div class=\"player2Card\"><p class=\"player2Image\"><img src=src/images/yellow_guy.png width=\"150\"></p>\n                <div class=\"player2Name\"><p>BaSa05</p></div>\n            </div>\n            </div>\n        </div>\n        </div>\n    </div>",
    "response": "f",
    "task": "make_choice",
    "trial_type": "html-keyboard-response",
    "trial_index": 56,
    "time_elapsed": 540179,
    "internal_node_id": "0.0-11.0-0.0-5.0-0.0",
    "participant_id": "5f2f8574ff256b37b1970220",
    "choice": 1,
    "player_num": 1,
    "trial_num": 6,
    "binned_trial_num": 2,
    "reward": 1,
    "prop_return": 0.2430896142090005,
    "prop_return_noise": 0.00887423197251019,
    "PID": null
  },
  {
    "rt": null,
    "stimulus": "<div class=\"gameHeader\">\n        </div>\n    <div class=\"offerCard\" style=\"height: auto; min-height: 90vh; overflow-y: auto; display: flex; justify-content: center;\">\n        <div class=\"bidOffer\" style=\"overflow-y: auto; display: flex; flex-direction: column; justify-content: center;\"><div class=\"outcomeText\"><p style=\"font-family: 'Times New Roman', Times, serif; font-size: 18px;\">You selected $1.00</p>\n\n        <p style=\"font-family: 'Times New Roman', Times, serif; font-size: 18px;\"><br>Your partner is deciding how much to return.</p></div></div>\n    </div>",
    "response": null,
    "trial_type": "html-keyboard-response",
    "trial_index": 57,
    "time_elapsed": 543325,
    "internal_node_id": "0.0-11.0-0.0-5.0-1.0",
    "participant_id": "5f2f8574ff256b37b1970220",
    "PID": null
  },
  {
    "rt": null,
    "stimulus": "<div class=\"gameHeader\">\n        </div>\n    <div class=\"offerCard\" style=\"height: auto; min-height: 90vh; overflow-y: auto; display: flex; justify-content: center;\">\n        <div class=\"bidOffer\" style=\"overflow-y: auto; display: flex; flex-direction: column; justify-content: center;\"><div style=\"display: flex; flex-direction: column; align-items: center; justify-content: center; width: 100%;\">\n            <div class=\"player2Card\" style=\"margin-bottom: 20px;\">\n                <p class=\"player2Image\"><img src=src/images/yellow_guy.png width=\"150\"></p>\n                <div class=\"player2Name\"><p>BaSa05</p></div>\n            </div>\n\n            <div style=\"background-color: #f8f9fa; border-radius: 10px; padding: 15px; text-align: center; max-width: 400px;\">\n                <p style=\"font-family: 'Times New Roman', Times, serif; font-size: 18px; margin: 0;\">BaSa05 received <strong>$4.00</strong> and returned <strong>$1.00</strong> to you.</p>\n            </div>\n        </div></div>\n    </div>",
    "response": null,
    "trial_type": "html-keyboard-response",
    "trial_index": 58,
    "time_elapsed": 547332,
    "internal_node_id": "0.0-11.0-0.0-5.0-2.0",
    "participant_id": "5f2f8574ff256b37b1970220",
    "PID": null
  },
  {
    "rt": null,
    "stimulus": "<div class=\"gameHeader\">\n        </div>\n    <div class=\"offerCard\" style=\"height: auto; min-height: 90vh; overflow-y: auto; display: flex; justify-content: center;\">\n        <div class=\"bidOffer\" style=\"overflow-y: auto; display: flex; flex-direction: column; justify-content: center;\"><div class=\"outcomeText\"><p style=\"font-family: 'Times New Roman', Times, serif; font-size: 18px;\">The next round will begin momentarily.</p>\n\n    <p style=\"font-family: 'Times New Roman', Times, serif; font-size: 18px;\">Please wait.</p></div></div>\n    </div>",
    "response": null,
    "trial_type": "html-keyboard-response",
    "trial_index": 59,
    "time_elapsed": 550033,
    "internal_node_id": "0.0-11.0-0.0-5.0-3.0-0.0",
    "participant_id": "5f2f8574ff256b37b1970220",
    "PID": null
  },
  {
    "rt": 1686,
    "stimulus": "<div class=\"gameHeader\">\n        </div>\n    <div class=\"offerCard\" style=\"height: auto; min-height: 90vh; overflow-y: auto; display: flex; justify-content: center;\">\n        <div class=\"bidOffer\" style=\"overflow-y: auto; display: flex; flex-direction: column; justify-content: center;\">\n        <div class=\"offers\">\n        <div class=\"textPrompt\"><p style=\"font-family: 'Times New Roman', Times, serif; font-size: 18px;\">How much money do you want\n        <br>to give ClMa07?</p></div>\n            <div class =\"trustElements\">\n            <div class=\"player1Card\"><p class=\"player1Image\"><img src=\"src/images/gray_guy.png\" width=\"150\"></p>\n                <div class=\"player1Name\"><p style=\"font-family: 'Times New Roman', Times, serif; font-size: 18px;\">Nisz06</p></div>\n            </div>\n\n                <div class=\"investmentCard\">\n                    <div id=\"leftBlock\" class=\"leftBlock\">\n                        <p style=\"font-family: 'Times New Roman', Times, serif; font-size: 18px;\">$1</p>\n                        <p style=\"font-family: 'Times New Roman', Times, serif; font-size: 18px; margin-top: 5px; color: #666;\">Press \"F\" key</p>\n                    </div>\n                    <div id=\"rightBlock\" class=\"rightBlock\">\n                        <p style=\"font-family: 'Times New Roman', Times, serif; font-size: 18px;\">$10</p>\n                        <p style=\"font-family: 'Times New Roman', Times, serif; font-size: 18px; margin-top: 5px; color: #666;\">Press \"J\" key</p>\n                    </div>\n                </div>\n\n            <div class=\"player2Card\"><p class=\"player2Image\"><img src=src/images/red_guy.png width=\"150\"></p>\n                <div class=\"player2Name\"><p>ClMa07</p></div>\n            </div>\n            </div>\n        </div>\n        </div>\n    </div>",
    "response": "j",
    "task": "make_choice",
    "trial_type": "html-keyboard-response",
    "trial_index": 60,
    "time_elapsed": 551720,
    "internal_node_id": "0.0-11.0-0.0-6.0-0.0",
    "participant_id": "5f2f8574ff256b37b1970220",
    "choice": 10,
    "player_num": 3,
    "trial_num": 7,
    "binned_trial_num": 3,
    "reward": 2.7,
    "prop_return": 0.053697779818948556,
    "prop_return_noise": 0.014400300516111148,
    "PID": null
  },
  {
    "rt": null,
    "stimulus": "<div class=\"gameHeader\">\n        </div>\n    <div class=\"offerCard\" style=\"height: auto; min-height: 90vh; overflow-y: auto; display: flex; justify-content: center;\">\n        <div class=\"bidOffer\" style=\"overflow-y: auto; display: flex; flex-direction: column; justify-content: center;\"><div class=\"outcomeText\"><p style=\"font-family: 'Times New Roman', Times, serif; font-size: 18px;\">You selected $10.00</p>\n\n        <p style=\"font-family: 'Times New Roman', Times, serif; font-size: 18px;\"><br>Your partner is deciding how much to return.</p></div></div>\n    </div>",
    "response": null,
    "trial_type": "html-keyboard-response",
    "trial_index": 61,
    "time_elapsed": 553769,
    "internal_node_id": "0.0-11.0-0.0-6.0-1.0",
    "participant_id": "5f2f8574ff256b37b1970220",
    "PID": null
  },
  {
    "rt": null,
    "stimulus": "<div class=\"gameHeader\">\n        </div>\n    <div class=\"offerCard\" style=\"height: auto; min-height: 90vh; overflow-y: auto; display: flex; justify-content: center;\">\n        <div class=\"bidOffer\" style=\"overflow-y: auto; display: flex; flex-direction: column; justify-content: center;\"><div style=\"display: flex; flex-direction: column; align-items: center; justify-content: center; width: 100%;\">\n            <div class=\"player2Card\" style=\"margin-bottom: 20px;\">\n                <p class=\"player2Image\"><img src=src/images/red_guy.png width=\"150\"></p>\n                <div class=\"player2Name\"><p>ClMa07</p></div>\n            </div>\n\n            <div style=\"background-color: #f8f9fa; border-radius: 10px; padding: 15px; text-align: center; max-width: 400px;\">\n                <p style=\"font-family: 'Times New Roman', Times, serif; font-size: 18px; margin: 0;\">ClMa07 received <strong>$40.00</strong> and returned <strong>$2.70</strong> to you.</p>\n            </div>\n        </div></div>\n    </div>",
    "response": null,
    "trial_type": "html-keyboard-response",
    "trial_index": 62,
    "time_elapsed": 557782,
    "internal_node_id": "0.0-11.0-0.0-6.0-2.0",
    "participant_id": "5f2f8574ff256b37b1970220",
    "PID": null
  },
  {
    "rt": null,
    "stimulus": "<div class=\"gameHeader\">\n        </div>\n    <div class=\"offerCard\" style=\"height: auto; min-height: 90vh; overflow-y: auto; display: flex; justify-content: center;\">\n        <div class=\"bidOffer\" style=\"overflow-y: auto; display: flex; flex-direction: column; justify-content: center;\"><div class=\"outcomeText\"><p style=\"font-family: 'Times New Roman', Times, serif; font-size: 18px;\">The next round will begin momentarily.</p>\n\n    <p style=\"font-family: 'Times New Roman', Times, serif; font-size: 18px;\">Please wait.</p></div></div>\n    </div>",
    "response": null,
    "trial_type": "html-keyboard-response",
    "trial_index": 63,
    "time_elapsed": 560021,
    "internal_node_id": "0.0-11.0-0.0-6.0-3.0-0.0",
    "participant_id": "5f2f8574ff256b37b1970220",
    "PID": null
  },
  {
    "rt": 1588,
    "stimulus": "<div class=\"gameHeader\">\n        </div>\n    <div class=\"offerCard\" style=\"height: auto; min-height: 90vh; overflow-y: auto; display: flex; justify-content: center;\">\n        <div class=\"bidOffer\" style=\"overflow-y: auto; display: flex; flex-direction: column; justify-content: center;\">\n        <div class=\"offers\">\n        <div class=\"textPrompt\"><p style=\"font-family: 'Times New Roman', Times, serif; font-size: 18px;\">How much money do you want\n        <br>to give GePl01?</p></div>\n            <div class =\"trustElements\">\n            <div class=\"player1Card\"><p class=\"player1Image\"><img src=\"src/images/gray_guy.png\" width=\"150\"></p>\n                <div class=\"player1Name\"><p style=\"font-family: 'Times New Roman', Times, serif; font-size: 18px;\">Nisz06</p></div>\n            </div>\n\n                <div class=\"investmentCard\">\n                    <div id=\"leftBlock\" class=\"leftBlock\">\n                        <p style=\"font-family: 'Times New Roman', Times, serif; font-size: 18px;\">$1</p>\n                        <p style=\"font-family: 'Times New Roman', Times, serif; font-size: 18px; margin-top: 5px; color: #666;\">Press \"F\" key</p>\n                    </div>\n                    <div id=\"rightBlock\" class=\"rightBlock\">\n                        <p style=\"font-family: 'Times New Roman', Times, serif; font-size: 18px;\">$10</p>\n                        <p style=\"font-family: 'Times New Roman', Times, serif; font-size: 18px; margin-top: 5px; color: #666;\">Press \"J\" key</p>\n                    </div>\n                </div>\n\n            <div class=\"player2Card\"><p class=\"player2Image\"><img src=src/images/green_guy.png width=\"150\"></p>\n                <div class=\"player2Name\"><p>GePl01</p></div>\n            </div>\n            </div>\n        </div>\n        </div>\n    </div>",
    "response": "f",
    "task": "make_choice",
    "trial_type": "html-keyboard-response",
    "trial_index": 64,
    "time_elapsed": 561611,
    "internal_node_id": "0.0-11.0-0.0-7.0-0.0",
    "participant_id": "5f2f8574ff256b37b1970220",
    "choice": 1,
    "player_num": 2,
    "trial_num": 8,
    "binned_trial_num": 3,
    "reward": 0.2,
    "prop_return": 0.055559770970180784,
    "prop_return_noise": -0.0005697652040665868,
    "PID": null
  },
  {
    "rt": null,
    "stimulus": "<div class=\"gameHeader\">\n        </div>\n    <div class=\"offerCard\" style=\"height: auto; min-height: 90vh; overflow-y: auto; display: flex; justify-content: center;\">\n        <div class=\"bidOffer\" style=\"overflow-y: auto; display: flex; flex-direction: column; justify-content: center;\"><div class=\"outcomeText\"><p style=\"font-family: 'Times New Roman', Times, serif; font-size: 18px;\">You selected $1.00</p>\n\n        <p style=\"font-family: 'Times New Roman', Times, serif; font-size: 18px;\"><br>Your partner is deciding how much to return.</p></div></div>\n    </div>",
    "response": null,
    "trial_type": "html-keyboard-response",
    "trial_index": 65,
    "time_elapsed": 565596,
    "internal_node_id": "0.0-11.0-0.0-7.0-1.0",
    "participant_id": "5f2f8574ff256b37b1970220",
    "PID": null
  },
  {
    "rt": null,
    "stimulus": "<div class=\"gameHeader\">\n        </div>\n    <div class=\"offerCard\" style=\"height: auto; min-height: 90vh; overflow-y: auto; display: flex; justify-content: center;\">\n        <div class=\"bidOffer\" style=\"overflow-y: auto; display: flex; flex-direction: column; justify-content: center;\"><div style=\"display: flex; flex-direction: column; align-items: center; justify-content: center; width: 100%;\">\n            <div class=\"player2Card\" style=\"margin-bottom: 20px;\">\n                <p class=\"player2Image\"><img src=src/images/green_guy.png width=\"150\"></p>\n                <div class=\"player2Name\"><p>GePl01</p></div>\n            </div>\n\n            <div style=\"background-color: #f8f9fa; border-radius: 10px; padding: 15px; text-align: center; max-width: 400px;\">\n                <p style=\"font-family: 'Times New Roman', Times, serif; font-size: 18px; margin: 0;\">GePl01 received <strong>$4.00</strong> and returned <strong>$0.20</strong> to you.</p>\n            </div>\n        </div></div>\n    </div>",
    "response": null,
    "trial_type": "html-keyboard-response",
    "trial_index": 66,
    "time_elapsed": 569609,
    "internal_node_id": "0.0-11.0-0.0-7.0-2.0",
    "participant_id": "5f2f8574ff256b37b1970220",
    "PID": null
  },
  {
    "rt": null,
    "stimulus": "<div class=\"gameHeader\">\n        </div>\n    <div class=\"offerCard\" style=\"height: auto; min-height: 90vh; overflow-y: auto; display: flex; justify-content: center;\">\n        <div class=\"bidOffer\" style=\"overflow-y: auto; display: flex; flex-direction: column; justify-content: center;\"><div class=\"outcomeText\"><p style=\"font-family: 'Times New Roman', Times, serif; font-size: 18px;\">The next round will begin momentarily.</p>\n\n    <p style=\"font-family: 'Times New Roman', Times, serif; font-size: 18px;\">Please wait.</p></div></div>\n    </div>",
    "response": null,
    "trial_type": "html-keyboard-response",
    "trial_index": 67,
    "time_elapsed": 573312,
    "internal_node_id": "0.0-11.0-0.0-7.0-3.0-0.0",
    "participant_id": "5f2f8574ff256b37b1970220",
    "PID": null
  },
  {
    "rt": 352,
    "stimulus": "<div class=\"gameHeader\">\n        </div>\n    <div class=\"offerCard\" style=\"height: auto; min-height: 90vh; overflow-y: auto; display: flex; justify-content: center;\">\n        <div class=\"bidOffer\" style=\"overflow-y: auto; display: flex; flex-direction: column; justify-content: center;\">\n        <div class=\"offers\">\n        <div class=\"textPrompt\"><p style=\"font-family: 'Times New Roman', Times, serif; font-size: 18px;\">How much money do you want\n        <br>to give ClMa07?</p></div>\n            <div class =\"trustElements\">\n            <div class=\"player1Card\"><p class=\"player1Image\"><img src=\"src/images/gray_guy.png\" width=\"150\"></p>\n                <div class=\"player1Name\"><p style=\"font-family: 'Times New Roman', Times, serif; font-size: 18px;\">Nisz06</p></div>\n            </div>\n\n                <div class=\"investmentCard\">\n                    <div id=\"leftBlock\" class=\"leftBlock\">\n                        <p style=\"font-family: 'Times New Roman', Times, serif; font-size: 18px;\">$1</p>\n                        <p style=\"font-family: 'Times New Roman', Times, serif; font-size: 18px; margin-top: 5px; color: #666;\">Press \"F\" key</p>\n                    </div>\n                    <div id=\"rightBlock\" class=\"rightBlock\">\n                        <p style=\"font-family: 'Times New Roman', Times, serif; font-size: 18px;\">$10</p>\n                        <p style=\"font-family: 'Times New Roman', Times, serif; font-size: 18px; margin-top: 5px; color: #666;\">Press \"J\" key</p>\n                    </div>\n                </div>\n\n            <div class=\"player2Card\"><p class=\"player2Image\"><img src=src/images/red_guy.png width=\"150\"></p>\n                <div class=\"player2Name\"><p>ClMa07</p></div>\n            </div>\n            </div>\n        </div>\n        </div>\n    </div>",
    "response": "j",
    "task": "make_choice",
    "trial_type": "html-keyboard-response",
    "trial_index": 68,
    "time_elapsed": 573666,
    "internal_node_id": "0.0-11.0-0.0-8.0-0.0",
    "participant_id": "5f2f8574ff256b37b1970220",
    "choice": 10,
    "player_num": 3,
    "trial_num": 9,
    "binned_trial_num": 3,
    "reward": 2.1,
    "prop_return": 0.05497422298213595,
    "prop_return_noise": -0.0016281374945026723,
    "PID": null
  },
  {
    "rt": null,
    "stimulus": "<div class=\"gameHeader\">\n        </div>\n    <div class=\"offerCard\" style=\"height: auto; min-height: 90vh; overflow-y: auto; display: flex; justify-content: center;\">\n        <div class=\"bidOffer\" style=\"overflow-y: auto; display: flex; flex-direction: column; justify-content: center;\"><div class=\"outcomeText\"><p style=\"font-family: 'Times New Roman', Times, serif; font-size: 18px;\">You selected $10.00</p>\n\n        <p style=\"font-family: 'Times New Roman', Times, serif; font-size: 18px;\"><br>Your partner is deciding how much to return.</p></div></div>\n    </div>",
    "response": null,
    "trial_type": "html-keyboard-response",
    "trial_index": 69,
    "time_elapsed": 576653,
    "internal_node_id": "0.0-11.0-0.0-8.0-1.0",
    "participant_id": "5f2f8574ff256b37b1970220",
    "PID": null
  },
  {
    "rt": null,
    "stimulus": "<div class=\"gameHeader\">\n        </div>\n    <div class=\"offerCard\" style=\"height: auto; min-height: 90vh; overflow-y: auto; display: flex; justify-content: center;\">\n        <div class=\"bidOffer\" style=\"overflow-y: auto; display: flex; flex-direction: column; justify-content: center;\"><div style=\"display: flex; flex-direction: column; align-items: center; justify-content: center; width: 100%;\">\n            <div class=\"player2Card\" style=\"margin-bottom: 20px;\">\n                <p class=\"player2Image\"><img src=src/images/red_guy.png width=\"150\"></p>\n                <div class=\"player2Name\"><p>ClMa07</p></div>\n            </div>\n\n            <div style=\"background-color: #f8f9fa; border-radius: 10px; padding: 15px; text-align: center; max-width: 400px;\">\n                <p style=\"font-family: 'Times New Roman', Times, serif; font-size: 18px; margin: 0;\">ClMa07 received <strong>$40.00</strong> and returned <strong>$2.10</strong> to you.</p>\n            </div>\n        </div></div>\n    </div>",
    "response": null,
    "trial_type": "html-keyboard-response",
    "trial_index": 70,
    "time_elapsed": 580666,
    "internal_node_id": "0.0-11.0-0.0-8.0-2.0",
    "participant_id": "5f2f8574ff256b37b1970220",
    "PID": null
  },
  {
    "rt": null,
    "stimulus": "<div class=\"gameHeader\">\n        </div>\n    <div class=\"offerCard\" style=\"height: auto; min-height: 90vh; overflow-y: auto; display: flex; justify-content: center;\">\n        <div class=\"bidOffer\" style=\"overflow-y: auto; display: flex; flex-direction: column; justify-content: center;\"><div class=\"outcomeText\"><p style=\"font-family: 'Times New Roman', Times, serif; font-size: 18px;\">The next round will begin momentarily.</p>\n\n    <p style=\"font-family: 'Times New Roman', Times, serif; font-size: 18px;\">Please wait.</p></div></div>\n    </div>",
    "response": null,
    "trial_type": "html-keyboard-response",
    "trial_index": 71,
    "time_elapsed": 582995,
    "internal_node_id": "0.0-11.0-0.0-8.0-3.0-0.0",
    "participant_id": "5f2f8574ff256b37b1970220",
    "PID": null
  },
  {
    "rt": 1808,
    "stimulus": "<div class=\"gameHeader\">\n        </div>\n    <div class=\"offerCard\" style=\"height: auto; min-height: 90vh; overflow-y: auto; display: flex; justify-content: center;\">\n        <div class=\"bidOffer\" style=\"overflow-y: auto; display: flex; flex-direction: column; justify-content: center;\">\n        <div class=\"offers\">\n        <div class=\"textPrompt\"><p style=\"font-family: 'Times New Roman', Times, serif; font-size: 18px;\">How much money do you want\n        <br>to give GePl01?</p></div>\n            <div class =\"trustElements\">\n            <div class=\"player1Card\"><p class=\"player1Image\"><img src=\"src/images/gray_guy.png\" width=\"150\"></p>\n                <div class=\"player1Name\"><p style=\"font-family: 'Times New Roman', Times, serif; font-size: 18px;\">Nisz06</p></div>\n            </div>\n\n                <div class=\"investmentCard\">\n                    <div id=\"leftBlock\" class=\"leftBlock\">\n                        <p style=\"font-family: 'Times New Roman', Times, serif; font-size: 18px;\">$1</p>\n                        <p style=\"font-family: 'Times New Roman', Times, serif; font-size: 18px; margin-top: 5px; color: #666;\">Press \"F\" key</p>\n                    </div>\n                    <div id=\"rightBlock\" class=\"rightBlock\">\n                        <p style=\"font-family: 'Times New Roman', Times, serif; font-size: 18px;\">$10</p>\n                        <p style=\"font-family: 'Times New Roman', Times, serif; font-size: 18px; margin-top: 5px; color: #666;\">Press \"J\" key</p>\n                    </div>\n                </div>\n\n            <div class=\"player2Card\"><p class=\"player2Image\"><img src=src/images/green_guy.png width=\"150\"></p>\n                <div class=\"player2Name\"><p>GePl01</p></div>\n            </div>\n            </div>\n        </div>\n        </div>\n    </div>",
    "response": "j",
    "task": "make_choice",
    "trial_type": "html-keyboard-response",
    "trial_index": 72,
    "time_elapsed": 584805,
    "internal_node_id": "0.0-11.0-0.0-9.0-0.0",
    "participant_id": "5f2f8574ff256b37b1970220",
    "choice": 10,
    "player_num": 2,
    "trial_num": 10,
    "binned_trial_num": 4,
    "reward": 1.4,
    "prop_return": 0.0467755514044035,
    "prop_return_noise": -0.011963904194099546,
    "PID": null
  },
  {
    "rt": null,
    "stimulus": "<div class=\"gameHeader\">\n        </div>\n    <div class=\"offerCard\" style=\"height: auto; min-height: 90vh; overflow-y: auto; display: flex; justify-content: center;\">\n        <div class=\"bidOffer\" style=\"overflow-y: auto; display: flex; flex-direction: column; justify-content: center;\"><div class=\"outcomeText\"><p style=\"font-family: 'Times New Roman', Times, serif; font-size: 18px;\">You selected $10.00</p>\n\n        <p style=\"font-family: 'Times New Roman', Times, serif; font-size: 18px;\"><br>Your partner is deciding how much to return.</p></div></div>\n    </div>",
    "response": null,
    "trial_type": "html-keyboard-response",
    "trial_index": 73,
    "time_elapsed": 587421,
    "internal_node_id": "0.0-11.0-0.0-9.0-1.0",
    "participant_id": "5f2f8574ff256b37b1970220",
    "PID": null
  },
  {
    "rt": null,
    "stimulus": "<div class=\"gameHeader\">\n        </div>\n    <div class=\"offerCard\" style=\"height: auto; min-height: 90vh; overflow-y: auto; display: flex; justify-content: center;\">\n        <div class=\"bidOffer\" style=\"overflow-y: auto; display: flex; flex-direction: column; justify-content: center;\"><div style=\"display: flex; flex-direction: column; align-items: center; justify-content: center; width: 100%;\">\n            <div class=\"player2Card\" style=\"margin-bottom: 20px;\">\n                <p class=\"player2Image\"><img src=src/images/green_guy.png width=\"150\"></p>\n                <div class=\"player2Name\"><p>GePl01</p></div>\n            </div>\n\n            <div style=\"background-color: #f8f9fa; border-radius: 10px; padding: 15px; text-align: center; max-width: 400px;\">\n                <p style=\"font-family: 'Times New Roman', Times, serif; font-size: 18px; margin: 0;\">GePl01 received <strong>$40.00</strong> and returned <strong>$1.40</strong> to you.</p>\n            </div>\n        </div></div>\n    </div>",
    "response": null,
    "trial_type": "html-keyboard-response",
    "trial_index": 74,
    "time_elapsed": 591436,
    "internal_node_id": "0.0-11.0-0.0-9.0-2.0",
    "participant_id": "5f2f8574ff256b37b1970220",
    "PID": null
  },
  {
    "rt": null,
    "stimulus": "<div class=\"gameHeader\">\n        </div>\n    <div class=\"offerCard\" style=\"height: auto; min-height: 90vh; overflow-y: auto; display: flex; justify-content: center;\">\n        <div class=\"bidOffer\" style=\"overflow-y: auto; display: flex; flex-direction: column; justify-content: center;\"><div class=\"outcomeText\"><p style=\"font-family: 'Times New Roman', Times, serif; font-size: 18px;\">The next round will begin momentarily.</p>\n\n    <p style=\"font-family: 'Times New Roman', Times, serif; font-size: 18px;\">Please wait.</p></div></div>\n    </div>",
    "response": null,
    "trial_type": "html-keyboard-response",
    "trial_index": 75,
    "time_elapsed": 593891,
    "internal_node_id": "0.0-11.0-0.0-9.0-3.0-0.0",
    "participant_id": "5f2f8574ff256b37b1970220",
    "PID": null
  },
  {
    "rt": 1636,
    "stimulus": "<div class=\"gameHeader\">\n        </div>\n    <div class=\"offerCard\" style=\"height: auto; min-height: 90vh; overflow-y: auto; display: flex; justify-content: center;\">\n        <div class=\"bidOffer\" style=\"overflow-y: auto; display: flex; flex-direction: column; justify-content: center;\">\n        <div class=\"offers\">\n        <div class=\"textPrompt\"><p style=\"font-family: 'Times New Roman', Times, serif; font-size: 18px;\">How much money do you want\n        <br>to give BaSa05?</p></div>\n            <div class =\"trustElements\">\n            <div class=\"player1Card\"><p class=\"player1Image\"><img src=\"src/images/gray_guy.png\" width=\"150\"></p>\n                <div class=\"player1Name\"><p style=\"font-family: 'Times New Roman', Times, serif; font-size: 18px;\">Nisz06</p></div>\n            </div>\n\n                <div class=\"investmentCard\">\n                    <div id=\"leftBlock\" class=\"leftBlock\">\n                        <p style=\"font-family: 'Times New Roman', Times, serif; font-size: 18px;\">$1</p>\n                        <p style=\"font-family: 'Times New Roman', Times, serif; font-size: 18px; margin-top: 5px; color: #666;\">Press \"F\" key</p>\n                    </div>\n                    <div id=\"rightBlock\" class=\"rightBlock\">\n                        <p style=\"font-family: 'Times New Roman', Times, serif; font-size: 18px;\">$10</p>\n                        <p style=\"font-family: 'Times New Roman', Times, serif; font-size: 18px; margin-top: 5px; color: #666;\">Press \"J\" key</p>\n                    </div>\n                </div>\n\n            <div class=\"player2Card\"><p class=\"player2Image\"><img src=src/images/yellow_guy.png width=\"150\"></p>\n                <div class=\"player2Name\"><p>BaSa05</p></div>\n            </div>\n            </div>\n        </div>\n        </div>\n    </div>",
    "response": "j",
    "task": "make_choice",
    "trial_type": "html-keyboard-response",
    "trial_index": 76,
    "time_elapsed": 595528,
    "internal_node_id": "0.0-11.0-0.0-10.0-0.0",
    "participant_id": "5f2f8574ff256b37b1970220",
    "choice": 10,
    "player_num": 1,
    "trial_num": 11,
    "binned_trial_num": 4,
    "reward": 9.5,
    "prop_return": 0.24517486829016497,
    "prop_return_noise": -0.008696610896420402,
    "PID": null
  },
  {
    "rt": null,
    "stimulus": "<div class=\"gameHeader\">\n        </div>\n    <div class=\"offerCard\" style=\"height: auto; min-height: 90vh; overflow-y: auto; display: flex; justify-content: center;\">\n        <div class=\"bidOffer\" style=\"overflow-y: auto; display: flex; flex-direction: column; justify-content: center;\"><div class=\"outcomeText\"><p style=\"font-family: 'Times New Roman', Times, serif; font-size: 18px;\">You selected $10.00</p>\n\n        <p style=\"font-family: 'Times New Roman', Times, serif; font-size: 18px;\"><br>Your partner is deciding how much to return.</p></div></div>\n    </div>",
    "response": null,
    "trial_type": "html-keyboard-response",
    "trial_index": 77,
    "time_elapsed": 598029,
    "internal_node_id": "0.0-11.0-0.0-10.0-1.0",
    "participant_id": "5f2f8574ff256b37b1970220",
    "PID": null
  },
  {
    "rt": null,
    "stimulus": "<div class=\"gameHeader\">\n        </div>\n    <div class=\"offerCard\" style=\"height: auto; min-height: 90vh; overflow-y: auto; display: flex; justify-content: center;\">\n        <div class=\"bidOffer\" style=\"overflow-y: auto; display: flex; flex-direction: column; justify-content: center;\"><div style=\"display: flex; flex-direction: column; align-items: center; justify-content: center; width: 100%;\">\n            <div class=\"player2Card\" style=\"margin-bottom: 20px;\">\n                <p class=\"player2Image\"><img src=src/images/yellow_guy.png width=\"150\"></p>\n                <div class=\"player2Name\"><p>BaSa05</p></div>\n            </div>\n\n            <div style=\"background-color: #f8f9fa; border-radius: 10px; padding: 15px; text-align: center; max-width: 400px;\">\n                <p style=\"font-family: 'Times New Roman', Times, serif; font-size: 18px; margin: 0;\">BaSa05 received <strong>$40.00</strong> and returned <strong>$9.50</strong> to you.</p>\n            </div>\n        </div></div>\n    </div>",
    "response": null,
    "trial_type": "html-keyboard-response",
    "trial_index": 78,
    "time_elapsed": 602040,
    "internal_node_id": "0.0-11.0-0.0-10.0-2.0",
    "participant_id": "5f2f8574ff256b37b1970220",
    "PID": null
  },
  {
    "rt": null,
    "stimulus": "<div class=\"gameHeader\">\n        </div>\n    <div class=\"offerCard\" style=\"height: auto; min-height: 90vh; overflow-y: auto; display: flex; justify-content: center;\">\n        <div class=\"bidOffer\" style=\"overflow-y: auto; display: flex; flex-direction: column; justify-content: center;\"><div class=\"outcomeText\"><p style=\"font-family: 'Times New Roman', Times, serif; font-size: 18px;\">The next round will begin momentarily.</p>\n\n    <p style=\"font-family: 'Times New Roman', Times, serif; font-size: 18px;\">Please wait.</p></div></div>\n    </div>",
    "response": null,
    "trial_type": "html-keyboard-response",
    "trial_index": 79,
    "time_elapsed": 605145,
    "internal_node_id": "0.0-11.0-0.0-10.0-3.0-0.0",
    "participant_id": "5f2f8574ff256b37b1970220",
    "PID": null
  },
  {
    "rt": 2187,
    "stimulus": "<div class=\"gameHeader\">\n        </div>\n    <div class=\"offerCard\" style=\"height: auto; min-height: 90vh; overflow-y: auto; display: flex; justify-content: center;\">\n        <div class=\"bidOffer\" style=\"overflow-y: auto; display: flex; flex-direction: column; justify-content: center;\">\n        <div class=\"offers\">\n        <div class=\"textPrompt\"><p style=\"font-family: 'Times New Roman', Times, serif; font-size: 18px;\">How much money do you want\n        <br>to give KeJo05?</p></div>\n            <div class =\"trustElements\">\n            <div class=\"player1Card\"><p class=\"player1Image\"><img src=\"src/images/gray_guy.png\" width=\"150\"></p>\n                <div class=\"player1Name\"><p style=\"font-family: 'Times New Roman', Times, serif; font-size: 18px;\">Nisz06</p></div>\n            </div>\n\n                <div class=\"investmentCard\">\n                    <div id=\"leftBlock\" class=\"leftBlock\">\n                        <p style=\"font-family: 'Times New Roman', Times, serif; font-size: 18px;\">$1</p>\n                        <p style=\"font-family: 'Times New Roman', Times, serif; font-size: 18px; margin-top: 5px; color: #666;\">Press \"F\" key</p>\n                    </div>\n                    <div id=\"rightBlock\" class=\"rightBlock\">\n                        <p style=\"font-family: 'Times New Roman', Times, serif; font-size: 18px;\">$10</p>\n                        <p style=\"font-family: 'Times New Roman', Times, serif; font-size: 18px; margin-top: 5px; color: #666;\">Press \"J\" key</p>\n                    </div>\n                </div>\n\n            <div class=\"player2Card\"><p class=\"player2Image\"><img src=src/images/blue_guy.png width=\"150\"></p>\n                <div class=\"player2Name\"><p>KeJo05</p></div>\n            </div>\n            </div>\n        </div>\n        </div>\n    </div>",
    "response": "j",
    "task": "make_choice",
    "trial_type": "html-keyboard-response",
    "trial_index": 80,
    "time_elapsed": 607334,
    "internal_node_id": "0.0-11.0-0.0-11.0-0.0",
    "participant_id": "5f2f8574ff256b37b1970220",
    "choice": 10,
    "player_num": 0,
    "trial_num": 12,
    "binned_trial_num": 4,
    "reward": 8.9,
    "prop_return": 0.24950016846384265,
    "prop_return_noise": -0.025917665234065725,
    "PID": null
  },
  {
    "rt": null,
    "stimulus": "<div class=\"gameHeader\">\n        </div>\n    <div class=\"offerCard\" style=\"height: auto; min-height: 90vh; overflow-y: auto; display: flex; justify-content: center;\">\n        <div class=\"bidOffer\" style=\"overflow-y: auto; display: flex; flex-direction: column; justify-content: center;\"><div class=\"outcomeText\"><p style=\"font-family: 'Times New Roman', Times, serif; font-size: 18px;\">You selected $10.00</p>\n\n        <p style=\"font-family: 'Times New Roman', Times, serif; font-size: 18px;\"><br>Your partner is deciding how much to return.</p></div></div>\n    </div>",
    "response": null,
    "trial_type": "html-keyboard-response",
    "trial_index": 81,
    "time_elapsed": 610795,
    "internal_node_id": "0.0-11.0-0.0-11.0-1.0",
    "participant_id": "5f2f8574ff256b37b1970220",
    "PID": null
  },
  {
    "rt": null,
    "stimulus": "<div class=\"gameHeader\">\n        </div>\n    <div class=\"offerCard\" style=\"height: auto; min-height: 90vh; overflow-y: auto; display: flex; justify-content: center;\">\n        <div class=\"bidOffer\" style=\"overflow-y: auto; display: flex; flex-direction: column; justify-content: center;\"><div style=\"display: flex; flex-direction: column; align-items: center; justify-content: center; width: 100%;\">\n            <div class=\"player2Card\" style=\"margin-bottom: 20px;\">\n                <p class=\"player2Image\"><img src=src/images/blue_guy.png width=\"150\"></p>\n                <div class=\"player2Name\"><p>KeJo05</p></div>\n            </div>\n\n            <div style=\"background-color: #f8f9fa; border-radius: 10px; padding: 15px; text-align: center; max-width: 400px;\">\n                <p style=\"font-family: 'Times New Roman', Times, serif; font-size: 18px; margin: 0;\">KeJo05 received <strong>$40.00</strong> and returned <strong>$8.90</strong> to you.</p>\n            </div>\n        </div></div>\n    </div>",
    "response": null,
    "trial_type": "html-keyboard-response",
    "trial_index": 82,
    "time_elapsed": 614799,
