"success","timeout","failed_images","failed_audio","failed_video","trial_type","trial_index","time_elapsed","internal_node_id","participant_id","PID","start_time","rt","response","view_history","question_order","stimulus","task","player_num","trial_num","binned_trial_num","reward","prop_return","prop_return_noise","choice","survey_type","pattern_response","source_partner_0","source_name_0","target_name_0","correct_0","source_partner_2","source_name_2","target_name_2","correct_2","total_correct","total_questions","accuracy"
true,false,"[]","[]","[]","preload",0,370,"0.0-0.0","5f2f8574ff256b37b1970220",,,,,,,,,,,,,,,,,,,,,,,,,,,,
true,,,,,"fullscreen",1,8550,"0.0-1.0","5f2f8574ff256b37b1970220",,,7175,,,,,,,,,,,,,,,,,,,,,,,,,
,,,,,"survey-html-form",2,13091,"0.0-2.0","5f2f8574ff256b37b1970220",,,4539,"{""participant_id"":""5f2f8574ff256b37b1970220""}",,,,,,,,,,,,,,,,,,,,,,,,
,,,,,"survey-html-form",3,53298,"0.0-3.0","5f2f8574ff256b37b1970220",,,40206,"{""session_username"":""Nisz06""}",,,,,,,,,,,,,,,,,,,,,,,,
,,,,,"instructions",4,56246,"0.0-4.0","5f2f8574ff256b37b1970220",,,2947,,"[{""page_index"":0,""viewing_time"":2947}]",,,,,,,,,,,,,,,,,,,,,,,
,,,,,"instructions",5,164225,"0.0-5.0-0.0","5f2f8574ff256b37b1970220",,,107978,,"[{""page_index"":0,""viewing_time"":21911},{""page_index"":1,""viewing_time"":39332},{""page_index"":2,""viewing_time"":33752},{""page_index"":3,""viewing_time"":12983}]",,,,,,,,,,,,,,,,,,,,,,,
,,,,,"survey-multi-choice",6,239099,"0.0-5.0-1.0","5f2f8574ff256b37b1970220",,,74871,"{""min_max"":""<span style='font-family: Times New Roman, Times, serif; font-size: 18px;'>$1 minimum, $10 maximum</span>"",""scenario_1"":""<span style='font-family: Times New Roman, Times, serif; font-size: 18px;'>You: $0.50, Partner: $3.50</span>"",""scenario_2"":""<span style='font-family: Times New Roman, Times, serif; font-size: 18px;'>You: $20.00, Partner: $20.00</span>"",""trials_selected"":""<span style='font-family: Times New Roman, Times, serif; font-size: 18px;'>4 trials</span>""}",,"[0,1,2,3]",,,,,,,,,,,,,,,,,,,,,,
,,,,,"html-keyboard-response",7,252486,"0.0-5.0-2.0","5f2f8574ff256b37b1970220",,,13385," ",,,"<div class=""wrapTextBox""><p style=""font-family: Times New Roman, Times, serif; font-size: 18px; margin-bottom: 20px;""><strong>Comprehension Check Results</strong></p><p style=""font-family: Times New Roman, Times, serif; font-size: 18px; color: green;"">✓ What is the minimum and maximum you can share - Correct</p><p style=""font-family: Times New Roman, Times, serif; font-size: 18px; color: red;"">❌ If you share $1.00 and partner returns $0.50 - Incorrect</p><p style=""font-family: Times New Roman, Times, serif; font-size: 18px; color: green;"">✓ If you share $10.00 and partner returns half - Correct</p><p style=""font-family: Times New Roman, Times, serif; font-size: 18px; color: green;"">✓ How many trials determine your bonus payment - Correct</p><p style=""font-family: Times New Roman, Times, serif; color: red; font-weight: bold; margin-top: 20px; font-size: 18px;"">Some answers were incorrect. Please review the instructions and try again.</p></div>",,,,,,,,,,,,,,,,,,,,,
,,,,,"instructions",8,331318,"0.0-5.1-0.1","5f2f8574ff256b37b1970220",,,78831,,"[{""page_index"":0,""viewing_time"":5583},{""page_index"":1,""viewing_time"":13800},{""page_index"":2,""viewing_time"":57628},{""page_index"":3,""viewing_time"":1821}]",,,,,,,,,,,,,,,,,,,,,,,
,,,,,"survey-multi-choice",9,348323,"0.0-5.1-1.1","5f2f8574ff256b37b1970220",,,17003,"{""min_max"":""<span style='font-family: Times New Roman, Times, serif; font-size: 18px;'>$1 minimum, $10 maximum</span>"",""scenario_1"":""<span style='font-family: Times New Roman, Times, serif; font-size: 18px;'>You: $1.50, Partner: $3.50</span>"",""scenario_2"":""<span style='font-family: Times New Roman, Times, serif; font-size: 18px;'>You: $20.00, Partner: $20.00</span>"",""trials_selected"":""<span style='font-family: Times New Roman, Times, serif; font-size: 18px;'>4 trials</span>""}",,"[0,1,2,3]",,,,,,,,,,,,,,,,,,,,,,
,,,,,"html-keyboard-response",10,353600,"0.0-5.1-2.1","5f2f8574ff256b37b1970220",,,5275," ",,,"<div class=""wrapTextBox""><p style=""font-family: Times New Roman, Times, serif; font-size: 18px; margin-bottom: 20px;""><strong>Comprehension Check Results</strong></p><p style=""font-family: Times New Roman, Times, serif; font-size: 18px; color: green;"">✓ What is the minimum and maximum you can share - Correct</p><p style=""font-family: Times New Roman, Times, serif; font-size: 18px; color: red;"">❌ If you share $1.00 and partner returns $0.50 - Incorrect</p><p style=""font-family: Times New Roman, Times, serif; font-size: 18px; color: green;"">✓ If you share $10.00 and partner returns half - Correct</p><p style=""font-family: Times New Roman, Times, serif; font-size: 18px; color: green;"">✓ How many trials determine your bonus payment - Correct</p><p style=""font-family: Times New Roman, Times, serif; color: red; font-weight: bold; margin-top: 20px; font-size: 18px;"">Some answers were incorrect. Please review the instructions and try again.</p></div>",,,,,,,,,,,,,,,,,,,,,
,,,,,"instructions",11,381829,"0.0-5.2-0.2","5f2f8574ff256b37b1970220",,,28229,,"[{""page_index"":0,""viewing_time"":1430},{""page_index"":1,""viewing_time"":1028},{""page_index"":2,""viewing_time"":24729},{""page_index"":3,""viewing_time"":1043}]",,,,,,,,,,,,,,,,,,,,,,,
,,,,,"survey-multi-choice",12,401387,"0.0-5.2-1.2","5f2f8574ff256b37b1970220",,,19556,"{""min_max"":""<span style='font-family: Times New Roman, Times, serif; font-size: 18px;'>$1 minimum, $10 maximum</span>"",""scenario_1"":""<span style='font-family: Times New Roman, Times, serif; font-size: 18px;'>You: $0.50, Partner: $3.50</span>"",""scenario_2"":""<span style='font-family: Times New Roman, Times, serif; font-size: 18px;'>You: $20.00, Partner: $20.00</span>"",""trials_selected"":""<span style='font-family: Times New Roman, Times, serif; font-size: 18px;'>4 trials</span>""}",,"[0,1,2,3]",,,,,,,,,,,,,,,,,,,,,,
,,,,,"html-keyboard-response",13,405148,"0.0-5.2-2.2","5f2f8574ff256b37b1970220",,,3760," ",,,"<div class=""wrapTextBox""><p style=""font-family: Times New Roman, Times, serif; font-size: 18px; margin-bottom: 20px;""><strong>Comprehension Check Results</strong></p><p style=""font-family: Times New Roman, Times, serif; font-size: 18px; color: green;"">✓ What is the minimum and maximum you can share - Correct</p><p style=""font-family: Times New Roman, Times, serif; font-size: 18px; color: red;"">❌ If you share $1.00 and partner returns $0.50 - Incorrect</p><p style=""font-family: Times New Roman, Times, serif; font-size: 18px; color: green;"">✓ If you share $10.00 and partner returns half - Correct</p><p style=""font-family: Times New Roman, Times, serif; font-size: 18px; color: green;"">✓ How many trials determine your bonus payment - Correct</p><p style=""font-family: Times New Roman, Times, serif; color: red; font-weight: bold; margin-top: 20px; font-size: 18px;"">Some answers were incorrect. Please review the instructions and try again.</p></div>",,,,,,,,,,,,,,,,,,,,,
,,,,,"instructions",14,408362,"0.0-5.3-0.3","5f2f8574ff256b37b1970220",,,3213,,"[{""page_index"":0,""viewing_time"":1193},{""page_index"":1,""viewing_time"":512},{""page_index"":2,""viewing_time"":656},{""page_index"":3,""viewing_time"":852}]",,,,,,,,,,,,,,,,,,,,,,,
,,,,,"survey-multi-choice",15,425551,"0.0-5.3-1.3","5f2f8574ff256b37b1970220",,,17188,"{""min_max"":""<span style='font-family: Times New Roman, Times, serif; font-size: 18px;'>$1 minimum, $10 maximum</span>"",""scenario_1"":""<span style='font-family: Times New Roman, Times, serif; font-size: 18px;'>You: $9.50, Partner: $3.50</span>"",""scenario_2"":""<span style='font-family: Times New Roman, Times, serif; font-size: 18px;'>You: $20.00, Partner: $20.00</span>"",""trials_selected"":""<span style='font-family: Times New Roman, Times, serif; font-size: 18px;'>4 trials</span>""}",,"[0,1,2,3]",,,,,,,,,,,,,,,,,,,,,,
,,,,,"html-keyboard-response",16,428000,"0.0-5.3-2.3","5f2f8574ff256b37b1970220",,,2448," ",,,"<div class=""wrapTextBox""><p style=""font-family: Times New Roman, Times, serif; font-size: 18px; margin-bottom: 20px;""><strong>Comprehension Check Results</strong></p><p style=""font-family: Times New Roman, Times, serif; font-size: 18px; color: green;"">✓ What is the minimum and maximum you can share - Correct</p><p style=""font-family: Times New Roman, Times, serif; font-size: 18px; color: green;"">✓ If you share $1.00 and partner returns $0.50 - Correct</p><p style=""font-family: Times New Roman, Times, serif; font-size: 18px; color: green;"">✓ If you share $10.00 and partner returns half - Correct</p><p style=""font-family: Times New Roman, Times, serif; font-size: 18px; color: green;"">✓ How many trials determine your bonus payment - Correct</p><p style=""font-family: Times New Roman, Times, serif; color: green; font-weight: bold; margin-top: 20px; font-size: 18px;"">All answers are correct! You can now proceed to the experiment.</p></div>",,,,,,,,,,,,,,,,,,,,,
,,,,,"html-keyboard-response",17,430309,"0.0-6.0","5f2f8574ff256b37b1970220",,,2308," ",,,"[""<div class=\""gameHeader\"">\n        </div>\n    <div class=\""offerCard\"" style=\""height: auto; min-height: 90vh; overflow-y: auto; display: flex; justify-content: center;\"">\n        <div class=\""bidOffer\"" style=\""overflow-y: auto; display: flex; flex-direction: column; justify-content: center;\"">\n    <div class =\""wrapTextBox\"">\n        <p style=\""font-family: 'Times New Roman', Times, serif; font-size: 18px;\"">All participants are ready to begin the session.</p>\n        <p style=\""font-family: 'Times New Roman', Times, serif; font-size: 18px;\"">Four participants have been randomly matched as your partners for this experiment.</p>\n        <p style=\""font-family: 'Times New Roman', Times, serif; font-size: 18px;\""><strong>Press the spacebar to begin the game!</strong></p>\n    </div>\n    </div>\n    </div>""]",,,,,,,,,,,,,,,,,,,,,
,,,,,"html-keyboard-response",18,433832,"0.0-7.0","5f2f8574ff256b37b1970220",,,3522," ",,,"<div class=""gameHeader"">
        </div>
    <div class=""offerCard"">
        <div class=""bidOffer"">
            <div class=""instructionsText"">
        <div class =""wrapTextBox"">
            <p><strong>Practice Phase</strong></p>
            <p>Let's practice the task before starting the real experiment.</p>
            <p>You will complete 4 practice trials. These won't count toward your final payment.</p>
            <p>Press the spacebar to begin practice.</p>
        </div>
        </div>
        </div>
    </div>",,,,,,,,,,,,,,,,,,,,,
,,,,,"html-keyboard-response",19,437837,"0.0-8.0-0.0","5f2f8574ff256b37b1970220",,,,,,,"<div class=""gameHeader"">
        </div>
    <div class=""offerCard"" style=""height: auto; min-height: 90vh; overflow-y: auto; display: flex; justify-content: center;"">
        <div class=""bidOffer"" style=""overflow-y: auto; display: flex; flex-direction: column; justify-content: center;"">
        <div class=""offers"">
        <div class=""textPrompt""><p style=""font-family: 'Times New Roman', Times, serif; font-size: 18px;"">How much money do you want
        <br>to give Partner?</p></div>
            <div class =""trustElements"">
            <div class=""player1Card""><p class=""player1Image""><img src=""src/images/gray_guy.png"" width=""150""></p>
                <div class=""player1Name""><p style=""font-family: 'Times New Roman', Times, serif; font-size: 18px;"">Nisz06</p></div>
            </div>

                <div class=""investmentCard"">
                    <div id=""leftBlock"" class=""leftBlock"">
                        <p style=""font-family: 'Times New Roman', Times, serif; font-size: 18px;"">$1</p>
                        <p style=""font-family: 'Times New Roman', Times, serif; font-size: 18px; margin-top: 5px; color: #666;"">Press ""F"" key</p>
                    </div>
                    <div id=""rightBlock"" class=""rightBlock"">
                        <p style=""font-family: 'Times New Roman', Times, serif; font-size: 18px;"">$10</p>
                        <p style=""font-family: 'Times New Roman', Times, serif; font-size: 18px; margin-top: 5px; color: #666;"">Press ""J"" key</p>
                    </div>
                </div>

            <div class=""player2Card""><p class=""player2Image""><img src=src/images/blue_guy.png width=""150""></p>
                <div class=""player2Name""><p>Partner</p></div>
            </div>
            </div>
        </div>
        </div>
    </div>","practice_choice",0,1,1,,0,-0.0019335049357945859,,,,,,,,,,,,,,
,,,,,"html-keyboard-response",20,440802,"0.0-8.0-1.0","5f2f8574ff256b37b1970220",,,,,,,"<div class=""gameHeader"">
        </div>
    <div class=""offerCard"" style=""height: auto; min-height: 90vh; overflow-y: auto; display: flex; justify-content: center;"">
        <div class=""bidOffer"" style=""overflow-y: auto; display: flex; flex-direction: column; justify-content: center;""><div class=""outcomeText""><p style=""font-family: 'Times New Roman', Times, serif; font-size: 18px;""><strong>You did not respond in time!</strong></p></div></div>
    </div>",,,,,,,,,,,,,,,,,,,,,
,,,,,"html-keyboard-response",21,444805,"0.0-8.0-2.0","5f2f8574ff256b37b1970220",,,,,,,"<div class=""gameHeader"">
        </div>
    <div class=""offerCard"" style=""height: auto; min-height: 90vh; overflow-y: auto; display: flex; justify-content: center;"">
        <div class=""bidOffer"" style=""overflow-y: auto; display: flex; flex-direction: column; justify-content: center;""><div style=""display: flex; flex-direction: column; align-items: center; justify-content: center; width: 100%;"">
            <div class=""player2Card"" style=""margin-bottom: 20px;"">
                <p class=""player2Image""><img src=src/images/blue_guy.png width=""150""></p>
                <div class=""player2Name""><p>Partner</p></div>
            </div>

            <div style=""background-color: #f8f9fa; border-radius: 10px; padding: 15px; text-align: center; max-width: 400px;"">
                <p style=""font-family: 'Times New Roman', Times, serif; font-size: 18px; margin: 0; color: #d9534f;""><strong>You did not respond in time!</strong></p>
                <p style=""font-family: 'Times New Roman', Times, serif; font-size: 18px; margin: 10px 0 0 0;"">You earned <strong>$0.00</strong></p>
                <p style=""font-family: 'Times New Roman', Times, serif; font-size: 18px; margin: 5px 0 0 0;"">Partner earned <strong>$0.00</strong>.</p>
            </div>
        </div></div>
    </div>",,,,,,,,,,,,,,,,,,,,,
,,,,,"html-keyboard-response",22,447691,"0.0-8.0-3.0-0.0","5f2f8574ff256b37b1970220",,,,,,,"<div class=""gameHeader"">
        </div>
    <div class=""offerCard"" style=""height: auto; min-height: 90vh; overflow-y: auto; display: flex; justify-content: center;"">
        <div class=""bidOffer"" style=""overflow-y: auto; display: flex; flex-direction: column; justify-content: center;""><div class=""outcomeText""><p style=""font-family: 'Times New Roman', Times, serif; font-size: 18px;"">The next round will begin momentarily.</p>

    <p style=""font-family: 'Times New Roman', Times, serif; font-size: 18px;"">Please wait.</p></div></div>
    </div>",,,,,,,,,,,,,,,,,,,,,
,,,,,"html-keyboard-response",23,449001,"0.0-8.0-0.1","5f2f8574ff256b37b1970220",,,1309,"f",,,"<div class=""gameHeader"">
        </div>
    <div class=""offerCard"" style=""height: auto; min-height: 90vh; overflow-y: auto; display: flex; justify-content: center;"">
        <div class=""bidOffer"" style=""overflow-y: auto; display: flex; flex-direction: column; justify-content: center;"">
        <div class=""offers"">
        <div class=""textPrompt""><p style=""font-family: 'Times New Roman', Times, serif; font-size: 18px;"">How much money do you want
        <br>to give Partner?</p></div>
            <div class =""trustElements"">
            <div class=""player1Card""><p class=""player1Image""><img src=""src/images/gray_guy.png"" width=""150""></p>
                <div class=""player1Name""><p style=""font-family: 'Times New Roman', Times, serif; font-size: 18px;"">Nisz06</p></div>
            </div>

                <div class=""investmentCard"">
                    <div id=""leftBlock"" class=""leftBlock"">
                        <p style=""font-family: 'Times New Roman', Times, serif; font-size: 18px;"">$1</p>
                        <p style=""font-family: 'Times New Roman', Times, serif; font-size: 18px; margin-top: 5px; color: #666;"">Press ""F"" key</p>
                    </div>
                    <div id=""rightBlock"" class=""rightBlock"">
                        <p style=""font-family: 'Times New Roman', Times, serif; font-size: 18px;"">$10</p>
                        <p style=""font-family: 'Times New Roman', Times, serif; font-size: 18px; margin-top: 5px; color: #666;"">Press ""J"" key</p>
                    </div>
                </div>

            <div class=""player2Card""><p class=""player2Image""><img src=src/images/yellow_guy.png width=""150""></p>
                <div class=""player2Name""><p>Partner</p></div>
            </div>
            </div>
        </div>
        </div>
    </div>","practice_choice",1,2,1,0,0,0.0014620656027805096,1,,,,,,,,,,,,,
,,,,,"html-keyboard-response",24,451416,"0.0-8.0-1.1","5f2f8574ff256b37b1970220",,,,,,,"<div class=""gameHeader"">
        </div>
    <div class=""offerCard"" style=""height: auto; min-height: 90vh; overflow-y: auto; display: flex; justify-content: center;"">
        <div class=""bidOffer"" style=""overflow-y: auto; display: flex; flex-direction: column; justify-content: center;""><div class=""outcomeText""><p style=""font-family: 'Times New Roman', Times, serif; font-size: 18px;"">You selected $1.00</p>

        <p style=""font-family: 'Times New Roman', Times, serif; font-size: 18px;""><br>Your partner is deciding how much to return.</p></div></div>
    </div>",,,,,,,,,,,,,,,,,,,,,
,,,,,"html-keyboard-response",25,455418,"0.0-8.0-2.1","5f2f8574ff256b37b1970220",,,,,,,"<div class=""gameHeader"">
        </div>
    <div class=""offerCard"" style=""height: auto; min-height: 90vh; overflow-y: auto; display: flex; justify-content: center;"">
        <div class=""bidOffer"" style=""overflow-y: auto; display: flex; flex-direction: column; justify-content: center;""><div style=""display: flex; flex-direction: column; align-items: center; justify-content: center; width: 100%;"">
            <div class=""player2Card"" style=""margin-bottom: 20px;"">
                <p class=""player2Image""><img src=src/images/yellow_guy.png width=""150""></p>
                <div class=""player2Name""><p>Partner</p></div>
            </div>

            <div style=""background-color: #f8f9fa; border-radius: 10px; padding: 15px; text-align: center; max-width: 400px;"">
                <p style=""font-family: 'Times New Roman', Times, serif; font-size: 18px; margin: 0;"">Partner received <strong>$4.00</strong> and returned <strong>$0.00</strong> to you.</p>
            </div>
        </div></div>
    </div>",,,,,,,,,,,,,,,,,,,,,
,,,,,"html-keyboard-response",26,457658,"0.0-8.0-3.1-0.1","5f2f8574ff256b37b1970220",,,,,,,"<div class=""gameHeader"">
        </div>
    <div class=""offerCard"" style=""height: auto; min-height: 90vh; overflow-y: auto; display: flex; justify-content: center;"">
        <div class=""bidOffer"" style=""overflow-y: auto; display: flex; flex-direction: column; justify-content: center;""><div class=""outcomeText""><p style=""font-family: 'Times New Roman', Times, serif; font-size: 18px;"">The next round will begin momentarily.</p>

    <p style=""font-family: 'Times New Roman', Times, serif; font-size: 18px;"">Please wait.</p></div></div>
    </div>",,,,,,,,,,,,,,,,,,,,,
,,,,,"html-keyboard-response",27,458413,"0.0-8.0-0.2","5f2f8574ff256b37b1970220",,,754,"f",,,"<div class=""gameHeader"">
        </div>
    <div class=""offerCard"" style=""height: auto; min-height: 90vh; overflow-y: auto; display: flex; justify-content: center;"">
        <div class=""bidOffer"" style=""overflow-y: auto; display: flex; flex-direction: column; justify-content: center;"">
        <div class=""offers"">
        <div class=""textPrompt""><p style=""font-family: 'Times New Roman', Times, serif; font-size: 18px;"">How much money do you want
        <br>to give Partner?</p></div>
            <div class =""trustElements"">
            <div class=""player1Card""><p class=""player1Image""><img src=""src/images/gray_guy.png"" width=""150""></p>
                <div class=""player1Name""><p style=""font-family: 'Times New Roman', Times, serif; font-size: 18px;"">Nisz06</p></div>
            </div>

                <div class=""investmentCard"">
                    <div id=""leftBlock"" class=""leftBlock"">
                        <p style=""font-family: 'Times New Roman', Times, serif; font-size: 18px;"">$1</p>
                        <p style=""font-family: 'Times New Roman', Times, serif; font-size: 18px; margin-top: 5px; color: #666;"">Press ""F"" key</p>
                    </div>
                    <div id=""rightBlock"" class=""rightBlock"">
                        <p style=""font-family: 'Times New Roman', Times, serif; font-size: 18px;"">$10</p>
                        <p style=""font-family: 'Times New Roman', Times, serif; font-size: 18px; margin-top: 5px; color: #666;"">Press ""J"" key</p>
                    </div>
                </div>

            <div class=""player2Card""><p class=""player2Image""><img src=src/images/green_guy.png width=""150""></p>
                <div class=""player2Name""><p>Partner</p></div>
            </div>
            </div>
        </div>
        </div>
    </div>","practice_choice",2,3,1,0.4,0.11098288068259632,-0.008376748572070564,1,,,,,,,,,,,,,
,,,,,"html-keyboard-response",28,462003,"0.0-8.0-1.2","5f2f8574ff256b37b1970220",,,,,,,"<div class=""gameHeader"">
        </div>
    <div class=""offerCard"" style=""height: auto; min-height: 90vh; overflow-y: auto; display: flex; justify-content: center;"">
        <div class=""bidOffer"" style=""overflow-y: auto; display: flex; flex-direction: column; justify-content: center;""><div class=""outcomeText""><p style=""font-family: 'Times New Roman', Times, serif; font-size: 18px;"">You selected $1.00</p>

        <p style=""font-family: 'Times New Roman', Times, serif; font-size: 18px;""><br>Your partner is deciding how much to return.</p></div></div>
    </div>",,,,,,,,,,,,,,,,,,,,,
,,,,,"html-keyboard-response",29,466013,"0.0-8.0-2.2","5f2f8574ff256b37b1970220",,,,,,,"<div class=""gameHeader"">
        </div>
    <div class=""offerCard"" style=""height: auto; min-height: 90vh; overflow-y: auto; display: flex; justify-content: center;"">
        <div class=""bidOffer"" style=""overflow-y: auto; display: flex; flex-direction: column; justify-content: center;""><div style=""display: flex; flex-direction: column; align-items: center; justify-content: center; width: 100%;"">
            <div class=""player2Card"" style=""margin-bottom: 20px;"">
                <p class=""player2Image""><img src=src/images/green_guy.png width=""150""></p>
                <div class=""player2Name""><p>Partner</p></div>
            </div>

            <div style=""background-color: #f8f9fa; border-radius: 10px; padding: 15px; text-align: center; max-width: 400px;"">
                <p style=""font-family: 'Times New Roman', Times, serif; font-size: 18px; margin: 0;"">Partner received <strong>$4.00</strong> and returned <strong>$0.40</strong> to you.</p>
            </div>
        </div></div>
    </div>",,,,,,,,,,,,,,,,,,,,,
,,,,,"html-keyboard-response",30,468464,"0.0-8.0-3.2-0.2","5f2f8574ff256b37b1970220",,,,,,,"<div class=""gameHeader"">
        </div>
    <div class=""offerCard"" style=""height: auto; min-height: 90vh; overflow-y: auto; display: flex; justify-content: center;"">
        <div class=""bidOffer"" style=""overflow-y: auto; display: flex; flex-direction: column; justify-content: center;""><div class=""outcomeText""><p style=""font-family: 'Times New Roman', Times, serif; font-size: 18px;"">The next round will begin momentarily.</p>

    <p style=""font-family: 'Times New Roman', Times, serif; font-size: 18px;"">Please wait.</p></div></div>
    </div>",,,,,,,,,,,,,,,,,,,,,
,,,,,"html-keyboard-response",31,470308,"0.0-8.0-0.3","5f2f8574ff256b37b1970220",,,1842,"j",,,"<div class=""gameHeader"">
        </div>
    <div class=""offerCard"" style=""height: auto; min-height: 90vh; overflow-y: auto; display: flex; justify-content: center;"">
        <div class=""bidOffer"" style=""overflow-y: auto; display: flex; flex-direction: column; justify-content: center;"">
        <div class=""offers"">
        <div class=""textPrompt""><p style=""font-family: 'Times New Roman', Times, serif; font-size: 18px;"">How much money do you want
        <br>to give Partner?</p></div>
            <div class =""trustElements"">
            <div class=""player1Card""><p class=""player1Image""><img src=""src/images/gray_guy.png"" width=""150""></p>
                <div class=""player1Name""><p style=""font-family: 'Times New Roman', Times, serif; font-size: 18px;"">Nisz06</p></div>
            </div>

                <div class=""investmentCard"">
                    <div id=""leftBlock"" class=""leftBlock"">
                        <p style=""font-family: 'Times New Roman', Times, serif; font-size: 18px;"">$1</p>
                        <p style=""font-family: 'Times New Roman', Times, serif; font-size: 18px; margin-top: 5px; color: #666;"">Press ""F"" key</p>
                    </div>
                    <div id=""rightBlock"" class=""rightBlock"">
                        <p style=""font-family: 'Times New Roman', Times, serif; font-size: 18px;"">$10</p>
                        <p style=""font-family: 'Times New Roman', Times, serif; font-size: 18px; margin-top: 5px; color: #666;"">Press ""J"" key</p>
                    </div>
                </div>

            <div class=""player2Card""><p class=""player2Image""><img src=src/images/red_guy.png width=""150""></p>
                <div class=""player2Name""><p>Partner</p></div>
            </div>
            </div>
        </div>
        </div>
    </div>","practice_choice",3,4,2,4.8,0.1133227133255334,0.006865347260558898,10,,,,,,,,,,,,,
,,,,,"html-keyboard-response",32,472587,"0.0-8.0-1.3","5f2f8574ff256b37b1970220",,,,,,,"<div class=""gameHeader"">
        </div>
    <div class=""offerCard"" style=""height: auto; min-height: 90vh; overflow-y: auto; display: flex; justify-content: center;"">
        <div class=""bidOffer"" style=""overflow-y: auto; display: flex; flex-direction: column; justify-content: center;""><div class=""outcomeText""><p style=""font-family: 'Times New Roman', Times, serif; font-size: 18px;"">You selected $10.00</p>

        <p style=""font-family: 'Times New Roman', Times, serif; font-size: 18px;""><br>Your partner is deciding how much to return.</p></div></div>
    </div>",,,,,,,,,,,,,,,,,,,,,
,,,,,"html-keyboard-response",33,476597,"0.0-8.0-2.3","5f2f8574ff256b37b1970220",,,,,,,"<div class=""gameHeader"">
        </div>
    <div class=""offerCard"" style=""height: auto; min-height: 90vh; overflow-y: auto; display: flex; justify-content: center;"">
        <div class=""bidOffer"" style=""overflow-y: auto; display: flex; flex-direction: column; justify-content: center;""><div style=""display: flex; flex-direction: column; align-items: center; justify-content: center; width: 100%;"">
            <div class=""player2Card"" style=""margin-bottom: 20px;"">
                <p class=""player2Image""><img src=src/images/red_guy.png width=""150""></p>
                <div class=""player2Name""><p>Partner</p></div>
            </div>

            <div style=""background-color: #f8f9fa; border-radius: 10px; padding: 15px; text-align: center; max-width: 400px;"">
                <p style=""font-family: 'Times New Roman', Times, serif; font-size: 18px; margin: 0;"">Partner received <strong>$40.00</strong> and returned <strong>$4.80</strong> to you.</p>
            </div>
        </div></div>
    </div>",,,,,,,,,,,,,,,,,,,,,
,,,,,"html-keyboard-response",34,481313,"0.0-9.0","5f2f8574ff256b37b1970220",,,4715," ",,,"<div class=""gameHeader"">
        </div>
    <div class=""offerCard"">
        <div class=""bidOffer"">
            <div class=""instructionsText"">
        <div class =""wrapTextBox"">
            <p><strong>Practice Complete!</strong></p>
            <p>You have finished the practice phase.</p>
            <p>The real experiment will now begin. Your decisions will now count toward your final payment.</p>
            <p>During the practice phase, four participants (<strong>KeJo05</strong>, <strong>BaSa05</strong>, <strong>GePl01</strong>, <strong>ClMa07</strong>) have been randomly matched as your partners for this experiment.</p>
            <p>Press the spacebar to start the experiment.</p>
        </div>
        </div>
        </div>
    </div>",,,,,,,,,,,,,,,,,,,,,
,,,,,"html-keyboard-response",35,482815,"0.0-10.0","5f2f8574ff256b37b1970220",,,,,,,"<div class=""gameHeader"">
        </div>
    <div class=""offerCard"">
        <div class=""bidOffer"">
            <div class=""instructionsText"">
        <div class =""wrapTextBox"">
            <p style=""font-family: 'Times New Roman', Times, serif; font-size: 18px;""><strong>Preparing main experiment...</strong></p>
        </div>
        </div>
        </div>
    </div>",,,,,,,,,,,,,,,,,,,,,
,,,,,"html-keyboard-response",36,484440,"0.0-11.0-0.0-0.0-0.0","5f2f8574ff256b37b1970220",,,1624,"j",,,"<div class=""gameHeader"">
        </div>
    <div class=""offerCard"" style=""height: auto; min-height: 90vh; overflow-y: auto; display: flex; justify-content: center;"">
        <div class=""bidOffer"" style=""overflow-y: auto; display: flex; flex-direction: column; justify-content: center;"">
        <div class=""offers"">
        <div class=""textPrompt""><p style=""font-family: 'Times New Roman', Times, serif; font-size: 18px;"">How much money do you want
        <br>to give ClMa07?</p></div>
            <div class =""trustElements"">
            <div class=""player1Card""><p class=""player1Image""><img src=""src/images/gray_guy.png"" width=""150""></p>
                <div class=""player1Name""><p style=""font-family: 'Times New Roman', Times, serif; font-size: 18px;"">Nisz06</p></div>
            </div>

                <div class=""investmentCard"">
                    <div id=""leftBlock"" class=""leftBlock"">
                        <p style=""font-family: 'Times New Roman', Times, serif; font-size: 18px;"">$1</p>
                        <p style=""font-family: 'Times New Roman', Times, serif; font-size: 18px; margin-top: 5px; color: #666;"">Press ""F"" key</p>
                    </div>
                    <div id=""rightBlock"" class=""rightBlock"">
                        <p style=""font-family: 'Times New Roman', Times, serif; font-size: 18px;"">$10</p>
                        <p style=""font-family: 'Times New Roman', Times, serif; font-size: 18px; margin-top: 5px; color: #666;"">Press ""J"" key</p>
                    </div>
                </div>

            <div class=""player2Card""><p class=""player2Image""><img src=src/images/red_guy.png width=""150""></p>
                <div class=""player2Name""><p>ClMa07</p></div>
            </div>
            </div>
        </div>
        </div>
    </div>","make_choice",3,1,1,15.5,0.401446276337741,-0.01396241832060487,10,,,,,,,,,,,,,
,,,,,"html-keyboard-response",37,488217,"0.0-11.0-0.0-0.0-1.0","5f2f8574ff256b37b1970220",,,,,,,"<div class=""gameHeader"">
        </div>
    <div class=""offerCard"" style=""height: auto; min-height: 90vh; overflow-y: auto; display: flex; justify-content: center;"">
        <div class=""bidOffer"" style=""overflow-y: auto; display: flex; flex-direction: column; justify-content: center;""><div class=""outcomeText""><p style=""font-family: 'Times New Roman', Times, serif; font-size: 18px;"">You selected $10.00</p>

        <p style=""font-family: 'Times New Roman', Times, serif; font-size: 18px;""><br>Your partner is deciding how much to return.</p></div></div>
    </div>",,,,,,,,,,,,,,,,,,,,,
,,,,,"html-keyboard-response",38,492228,"0.0-11.0-0.0-0.0-2.0","5f2f8574ff256b37b1970220",,,,,,,"<div class=""gameHeader"">
        </div>
    <div class=""offerCard"" style=""height: auto; min-height: 90vh; overflow-y: auto; display: flex; justify-content: center;"">
        <div class=""bidOffer"" style=""overflow-y: auto; display: flex; flex-direction: column; justify-content: center;""><div style=""display: flex; flex-direction: column; align-items: center; justify-content: center; width: 100%;"">
            <div class=""player2Card"" style=""margin-bottom: 20px;"">
                <p class=""player2Image""><img src=src/images/red_guy.png width=""150""></p>
                <div class=""player2Name""><p>ClMa07</p></div>
            </div>

            <div style=""background-color: #f8f9fa; border-radius: 10px; padding: 15px; text-align: center; max-width: 400px;"">
                <p style=""font-family: 'Times New Roman', Times, serif; font-size: 18px; margin: 0;"">ClMa07 received <strong>$40.00</strong> and returned <strong>$15.50</strong> to you.</p>
            </div>
        </div></div>
    </div>",,,,,,,,,,,,,,,,,,,,,
,,,,,"html-keyboard-response",39,495858,"0.0-11.0-0.0-0.0-3.0-0.0","5f2f8574ff256b37b1970220",,,,,,,"<div class=""gameHeader"">
        </div>
    <div class=""offerCard"" style=""height: auto; min-height: 90vh; overflow-y: auto; display: flex; justify-content: center;"">
        <div class=""bidOffer"" style=""overflow-y: auto; display: flex; flex-direction: column; justify-content: center;""><div class=""outcomeText""><p style=""font-family: 'Times New Roman', Times, serif; font-size: 18px;"">The next round will begin momentarily.</p>

    <p style=""font-family: 'Times New Roman', Times, serif; font-size: 18px;"">Please wait.</p></div></div>
    </div>",,,,,,,,,,,,,,,,,,,,,
,,,,,"html-keyboard-response",40,496562,"0.0-11.0-0.0-1.0-0.0","5f2f8574ff256b37b1970220",,,703,"j",,,"<div class=""gameHeader"">
        </div>
    <div class=""offerCard"" style=""height: auto; min-height: 90vh; overflow-y: auto; display: flex; justify-content: center;"">
        <div class=""bidOffer"" style=""overflow-y: auto; display: flex; flex-direction: column; justify-content: center;"">
        <div class=""offers"">
        <div class=""textPrompt""><p style=""font-family: 'Times New Roman', Times, serif; font-size: 18px;"">How much money do you want
        <br>to give GePl01?</p></div>
            <div class =""trustElements"">
            <div class=""player1Card""><p class=""player1Image""><img src=""src/images/gray_guy.png"" width=""150""></p>
                <div class=""player1Name""><p style=""font-family: 'Times New Roman', Times, serif; font-size: 18px;"">Nisz06</p></div>
            </div>

                <div class=""investmentCard"">
                    <div id=""leftBlock"" class=""leftBlock"">
                        <p style=""font-family: 'Times New Roman', Times, serif; font-size: 18px;"">$1</p>
                        <p style=""font-family: 'Times New Roman', Times, serif; font-size: 18px; margin-top: 5px; color: #666;"">Press ""F"" key</p>
                    </div>
                    <div id=""rightBlock"" class=""rightBlock"">
                        <p style=""font-family: 'Times New Roman', Times, serif; font-size: 18px;"">$10</p>
                        <p style=""font-family: 'Times New Roman', Times, serif; font-size: 18px; margin-top: 5px; color: #666;"">Press ""J"" key</p>
                    </div>
                </div>

            <div class=""player2Card""><p class=""player2Image""><img src=src/images/green_guy.png width=""150""></p>
                <div class=""player2Name""><p>GePl01</p></div>
            </div>
            </div>
        </div>
        </div>
    </div>","make_choice",2,2,1,16.6,0.4233738842384282,-0.008234873457482148,10,,,,,,,,,,,,,
,,,,,"html-keyboard-response",41,499063,"0.0-11.0-0.0-1.0-1.0","5f2f8574ff256b37b1970220",,,,,,,"<div class=""gameHeader"">
        </div>
    <div class=""offerCard"" style=""height: auto; min-height: 90vh; overflow-y: auto; display: flex; justify-content: center;"">
        <div class=""bidOffer"" style=""overflow-y: auto; display: flex; flex-direction: column; justify-content: center;""><div class=""outcomeText""><p style=""font-family: 'Times New Roman', Times, serif; font-size: 18px;"">You selected $10.00</p>

        <p style=""font-family: 'Times New Roman', Times, serif; font-size: 18px;""><br>Your partner is deciding how much to return.</p></div></div>
    </div>",,,,,,,,,,,,,,,,,,,,,
,,,,,"html-keyboard-response",42,503072,"0.0-11.0-0.0-1.0-2.0","5f2f8574ff256b37b1970220",,,,,,,"<div class=""gameHeader"">
        </div>
    <div class=""offerCard"" style=""height: auto; min-height: 90vh; overflow-y: auto; display: flex; justify-content: center;"">
        <div class=""bidOffer"" style=""overflow-y: auto; display: flex; flex-direction: column; justify-content: center;""><div style=""display: flex; flex-direction: column; align-items: center; justify-content: center; width: 100%;"">
            <div class=""player2Card"" style=""margin-bottom: 20px;"">
                <p class=""player2Image""><img src=src/images/green_guy.png width=""150""></p>
                <div class=""player2Name""><p>GePl01</p></div>
            </div>

            <div style=""background-color: #f8f9fa; border-radius: 10px; padding: 15px; text-align: center; max-width: 400px;"">
                <p style=""font-family: 'Times New Roman', Times, serif; font-size: 18px; margin: 0;"">GePl01 received <strong>$40.00</strong> and returned <strong>$16.60</strong> to you.</p>
            </div>
        </div></div>
    </div>",,,,,,,,,,,,,,,,,,,,,
,,,,,"html-keyboard-response",43,506817,"0.0-11.0-0.0-1.0-3.0-0.0","5f2f8574ff256b37b1970220",,,,,,,"<div class=""gameHeader"">
        </div>
    <div class=""offerCard"" style=""height: auto; min-height: 90vh; overflow-y: auto; display: flex; justify-content: center;"">
        <div class=""bidOffer"" style=""overflow-y: auto; display: flex; flex-direction: column; justify-content: center;""><div class=""outcomeText""><p style=""font-family: 'Times New Roman', Times, serif; font-size: 18px;"">The next round will begin momentarily.</p>

    <p style=""font-family: 'Times New Roman', Times, serif; font-size: 18px;"">Please wait.</p></div></div>
    </div>",,,,,,,,,,,,,,,,,,,,,
,,,,,"html-keyboard-response",44,507268,"0.0-11.0-0.0-2.0-0.0","5f2f8574ff256b37b1970220",,,450,"j",,,"<div class=""gameHeader"">
        </div>
    <div class=""offerCard"" style=""height: auto; min-height: 90vh; overflow-y: auto; display: flex; justify-content: center;"">
        <div class=""bidOffer"" style=""overflow-y: auto; display: flex; flex-direction: column; justify-content: center;"">
        <div class=""offers"">
        <div class=""textPrompt""><p style=""font-family: 'Times New Roman', Times, serif; font-size: 18px;"">How much money do you want
        <br>to give BaSa05?</p></div>
            <div class =""trustElements"">
            <div class=""player1Card""><p class=""player1Image""><img src=""src/images/gray_guy.png"" width=""150""></p>
                <div class=""player1Name""><p style=""font-family: 'Times New Roman', Times, serif; font-size: 18px;"">Nisz06</p></div>
            </div>

                <div class=""investmentCard"">
                    <div id=""leftBlock"" class=""leftBlock"">
                        <p style=""font-family: 'Times New Roman', Times, serif; font-size: 18px;"">$1</p>
                        <p style=""font-family: 'Times New Roman', Times, serif; font-size: 18px; margin-top: 5px; color: #666;"">Press ""F"" key</p>
                    </div>
                    <div id=""rightBlock"" class=""rightBlock"">
                        <p style=""font-family: 'Times New Roman', Times, serif; font-size: 18px;"">$10</p>
                        <p style=""font-family: 'Times New Roman', Times, serif; font-size: 18px; margin-top: 5px; color: #666;"">Press ""J"" key</p>
                    </div>
                </div>

            <div class=""player2Card""><p class=""player2Image""><img src=src/images/yellow_guy.png width=""150""></p>
                <div class=""player2Name""><p>BaSa05</p></div>
            </div>
            </div>
        </div>
        </div>
    </div>","make_choice",1,3,1,10.5,0.2579130438171644,0.0038314947811298634,10,,,,,,,,,,,,,
,,,,,"html-keyboard-response",45,510333,"0.0-11.0-0.0-2.0-1.0","5f2f8574ff256b37b1970220",,,,,,,"<div class=""gameHeader"">
        </div>
    <div class=""offerCard"" style=""height: auto; min-height: 90vh; overflow-y: auto; display: flex; justify-content: center;"">
        <div class=""bidOffer"" style=""overflow-y: auto; display: flex; flex-direction: column; justify-content: center;""><div class=""outcomeText""><p style=""font-family: 'Times New Roman', Times, serif; font-size: 18px;"">You selected $10.00</p>

        <p style=""font-family: 'Times New Roman', Times, serif; font-size: 18px;""><br>Your partner is deciding how much to return.</p></div></div>
    </div>",,,,,,,,,,,,,,,,,,,,,
,,,,,"html-keyboard-response",46,514336,"0.0-11.0-0.0-2.0-2.0","5f2f8574ff256b37b1970220",,,,,,,"<div class=""gameHeader"">
        </div>
    <div class=""offerCard"" style=""height: auto; min-height: 90vh; overflow-y: auto; display: flex; justify-content: center;"">
        <div class=""bidOffer"" style=""overflow-y: auto; display: flex; flex-direction: column; justify-content: center;""><div style=""display: flex; flex-direction: column; align-items: center; justify-content: center; width: 100%;"">
            <div class=""player2Card"" style=""margin-bottom: 20px;"">
                <p class=""player2Image""><img src=src/images/yellow_guy.png width=""150""></p>
                <div class=""player2Name""><p>BaSa05</p></div>
            </div>

            <div style=""background-color: #f8f9fa; border-radius: 10px; padding: 15px; text-align: center; max-width: 400px;"">
                <p style=""font-family: 'Times New Roman', Times, serif; font-size: 18px; margin: 0;"">BaSa05 received <strong>$40.00</strong> and returned <strong>$10.50</strong> to you.</p>
            </div>
        </div></div>
    </div>",,,,,,,,,,,,,,,,,,,,,
,,,,,"html-keyboard-response",47,517609,"0.0-11.0-0.0-2.0-3.0-0.0","5f2f8574ff256b37b1970220",,,,,,,"<div class=""gameHeader"">
        </div>
    <div class=""offerCard"" style=""height: auto; min-height: 90vh; overflow-y: auto; display: flex; justify-content: center;"">
        <div class=""bidOffer"" style=""overflow-y: auto; display: flex; flex-direction: column; justify-content: center;""><div class=""outcomeText""><p style=""font-family: 'Times New Roman', Times, serif; font-size: 18px;"">The next round will begin momentarily.</p>

    <p style=""font-family: 'Times New Roman', Times, serif; font-size: 18px;"">Please wait.</p></div></div>
    </div>",,,,,,,,,,,,,,,,,,,,,
,,,,,"html-keyboard-response",48,518351,"0.0-11.0-0.0-3.0-0.0","5f2f8574ff256b37b1970220",,,740,"j",,,"<div class=""gameHeader"">
        </div>
    <div class=""offerCard"" style=""height: auto; min-height: 90vh; overflow-y: auto; display: flex; justify-content: center;"">
        <div class=""bidOffer"" style=""overflow-y: auto; display: flex; flex-direction: column; justify-content: center;"">
        <div class=""offers"">
        <div class=""textPrompt""><p style=""font-family: 'Times New Roman', Times, serif; font-size: 18px;"">How much money do you want
        <br>to give KeJo05?</p></div>
            <div class =""trustElements"">
            <div class=""player1Card""><p class=""player1Image""><img src=""src/images/gray_guy.png"" width=""150""></p>
                <div class=""player1Name""><p style=""font-family: 'Times New Roman', Times, serif; font-size: 18px;"">Nisz06</p></div>
            </div>

                <div class=""investmentCard"">
                    <div id=""leftBlock"" class=""leftBlock"">
                        <p style=""font-family: 'Times New Roman', Times, serif; font-size: 18px;"">$1</p>
                        <p style=""font-family: 'Times New Roman', Times, serif; font-size: 18px; margin-top: 5px; color: #666;"">Press ""F"" key</p>
                    </div>
                    <div id=""rightBlock"" class=""rightBlock"">
                        <p style=""font-family: 'Times New Roman', Times, serif; font-size: 18px;"">$10</p>
                        <p style=""font-family: 'Times New Roman', Times, serif; font-size: 18px; margin-top: 5px; color: #666;"">Press ""J"" key</p>
                    </div>
                </div>

            <div class=""player2Card""><p class=""player2Image""><img src=src/images/blue_guy.png width=""150""></p>
                <div class=""player2Name""><p>KeJo05</p></div>
            </div>
            </div>
        </div>
        </div>
    </div>","make_choice",0,4,2,9.2,0.2438393225410817,-0.012993398394568636,10,,,,,,,,,,,,,
,,,,,"html-keyboard-response",49,520703,"0.0-11.0-0.0-3.0-1.0","5f2f8574ff256b37b1970220",,,,,,,"<div class=""gameHeader"">
        </div>
    <div class=""offerCard"" style=""height: auto; min-height: 90vh; overflow-y: auto; display: flex; justify-content: center;"">
        <div class=""bidOffer"" style=""overflow-y: auto; display: flex; flex-direction: column; justify-content: center;""><div class=""outcomeText""><p style=""font-family: 'Times New Roman', Times, serif; font-size: 18px;"">You selected $10.00</p>

        <p style=""font-family: 'Times New Roman', Times, serif; font-size: 18px;""><br>Your partner is deciding how much to return.</p></div></div>
    </div>",,,,,,,,,,,,,,,,,,,,,
,,,,,"html-keyboard-response",50,524709,"0.0-11.0-0.0-3.0-2.0","5f2f8574ff256b37b1970220",,,,,,,"<div class=""gameHeader"">
        </div>
    <div class=""offerCard"" style=""height: auto; min-height: 90vh; overflow-y: auto; display: flex; justify-content: center;"">
        <div class=""bidOffer"" style=""overflow-y: auto; display: flex; flex-direction: column; justify-content: center;""><div style=""display: flex; flex-direction: column; align-items: center; justify-content: center; width: 100%;"">
            <div class=""player2Card"" style=""margin-bottom: 20px;"">
                <p class=""player2Image""><img src=src/images/blue_guy.png width=""150""></p>
                <div class=""player2Name""><p>KeJo05</p></div>
            </div>

            <div style=""background-color: #f8f9fa; border-radius: 10px; padding: 15px; text-align: center; max-width: 400px;"">
                <p style=""font-family: 'Times New Roman', Times, serif; font-size: 18px; margin: 0;"">KeJo05 received <strong>$40.00</strong> and returned <strong>$9.20</strong> to you.</p>
            </div>
        </div></div>
    </div>",,,,,,,,,,,,,,,,,,,,,
,,,,,"html-keyboard-response",51,527045,"0.0-11.0-0.0-3.0-3.0-0.0","5f2f8574ff256b37b1970220",,,,,,,"<div class=""gameHeader"">
        </div>
    <div class=""offerCard"" style=""height: auto; min-height: 90vh; overflow-y: auto; display: flex; justify-content: center;"">
        <div class=""bidOffer"" style=""overflow-y: auto; display: flex; flex-direction: column; justify-content: center;""><div class=""outcomeText""><p style=""font-family: 'Times New Roman', Times, serif; font-size: 18px;"">The next round will begin momentarily.</p>

    <p style=""font-family: 'Times New Roman', Times, serif; font-size: 18px;"">Please wait.</p></div></div>
    </div>",,,,,,,,,,,,,,,,,,,,,
,,,,,"html-keyboard-response",52,528228,"0.0-11.0-0.0-4.0-0.0","5f2f8574ff256b37b1970220",,,1182,"j",,,"<div class=""gameHeader"">
        </div>
    <div class=""offerCard"" style=""height: auto; min-height: 90vh; overflow-y: auto; display: flex; justify-content: center;"">
        <div class=""bidOffer"" style=""overflow-y: auto; display: flex; flex-direction: column; justify-content: center;"">
        <div class=""offers"">
        <div class=""textPrompt""><p style=""font-family: 'Times New Roman', Times, serif; font-size: 18px;"">How much money do you want
        <br>to give KeJo05?</p></div>
            <div class =""trustElements"">
            <div class=""player1Card""><p class=""player1Image""><img src=""src/images/gray_guy.png"" width=""150""></p>
                <div class=""player1Name""><p style=""font-family: 'Times New Roman', Times, serif; font-size: 18px;"">Nisz06</p></div>
            </div>

                <div class=""investmentCard"">
                    <div id=""leftBlock"" class=""leftBlock"">
                        <p style=""font-family: 'Times New Roman', Times, serif; font-size: 18px;"">$1</p>
                        <p style=""font-family: 'Times New Roman', Times, serif; font-size: 18px; margin-top: 5px; color: #666;"">Press ""F"" key</p>
                    </div>
                    <div id=""rightBlock"" class=""rightBlock"">
                        <p style=""font-family: 'Times New Roman', Times, serif; font-size: 18px;"">$10</p>
                        <p style=""font-family: 'Times New Roman', Times, serif; font-size: 18px; margin-top: 5px; color: #666;"">Press ""J"" key</p>
                    </div>
                </div>

            <div class=""player2Card""><p class=""player2Image""><img src=src/images/blue_guy.png width=""150""></p>
                <div class=""player2Name""><p>KeJo05</p></div>
            </div>
            </div>
        </div>
        </div>
    </div>","make_choice",0,5,2,9.4,0.24712503603259,-0.011241101709090508,10,,,,,,,,,,,,,
,,,,,"html-keyboard-response",53,532037,"0.0-11.0-0.0-4.0-1.0","5f2f8574ff256b37b1970220",,,,,,,"<div class=""gameHeader"">
        </div>
    <div class=""offerCard"" style=""height: auto; min-height: 90vh; overflow-y: auto; display: flex; justify-content: center;"">
        <div class=""bidOffer"" style=""overflow-y: auto; display: flex; flex-direction: column; justify-content: center;""><div class=""outcomeText""><p style=""font-family: 'Times New Roman', Times, serif; font-size: 18px;"">You selected $10.00</p>

        <p style=""font-family: 'Times New Roman', Times, serif; font-size: 18px;""><br>Your partner is deciding how much to return.</p></div></div>
    </div>",,,,,,,,,,,,,,,,,,,,,
,,,,,"html-keyboard-response",54,536045,"0.0-11.0-0.0-4.0-2.0","5f2f8574ff256b37b1970220",,,,,,,"<div class=""gameHeader"">
        </div>
    <div class=""offerCard"" style=""height: auto; min-height: 90vh; overflow-y: auto; display: flex; justify-content: center;"">
        <div class=""bidOffer"" style=""overflow-y: auto; display: flex; flex-direction: column; justify-content: center;""><div style=""display: flex; flex-direction: column; align-items: center; justify-content: center; width: 100%;"">
            <div class=""player2Card"" style=""margin-bottom: 20px;"">
                <p class=""player2Image""><img src=src/images/blue_guy.png width=""150""></p>
                <div class=""player2Name""><p>KeJo05</p></div>
            </div>

            <div style=""background-color: #f8f9fa; border-radius: 10px; padding: 15px; text-align: center; max-width: 400px;"">
                <p style=""font-family: 'Times New Roman', Times, serif; font-size: 18px; margin: 0;"">KeJo05 received <strong>$40.00</strong> and returned <strong>$9.40</strong> to you.</p>
            </div>
        </div></div>
    </div>",,,,,,,,,,,,,,,,,,,,,
,,,,,"html-keyboard-response",55,539660,"0.0-11.0-0.0-4.0-3.0-0.0","5f2f8574ff256b37b1970220",,,,,,,"<div class=""gameHeader"">
        </div>
    <div class=""offerCard"" style=""height: auto; min-height: 90vh; overflow-y: auto; display: flex; justify-content: center;"">
        <div class=""bidOffer"" style=""overflow-y: auto; display: flex; flex-direction: column; justify-content: center;""><div class=""outcomeText""><p style=""font-family: 'Times New Roman', Times, serif; font-size: 18px;"">The next round will begin momentarily.</p>

    <p style=""font-family: 'Times New Roman', Times, serif; font-size: 18px;"">Please wait.</p></div></div>
    </div>",,,,,,,,,,,,,,,,,,,,,
,,,,,"html-keyboard-response",56,540179,"0.0-11.0-0.0-5.0-0.0","5f2f8574ff256b37b1970220",,,517,"f",,,"<div class=""gameHeader"">
        </div>
    <div class=""offerCard"" style=""height: auto; min-height: 90vh; overflow-y: auto; display: flex; justify-content: center;"">
        <div class=""bidOffer"" style=""overflow-y: auto; display: flex; flex-direction: column; justify-content: center;"">
        <div class=""offers"">
        <div class=""textPrompt""><p style=""font-family: 'Times New Roman', Times, serif; font-size: 18px;"">How much money do you want
        <br>to give BaSa05?</p></div>
            <div class =""trustElements"">
            <div class=""player1Card""><p class=""player1Image""><img src=""src/images/gray_guy.png"" width=""150""></p>
                <div class=""player1Name""><p style=""font-family: 'Times New Roman', Times, serif; font-size: 18px;"">Nisz06</p></div>
            </div>

                <div class=""investmentCard"">
                    <div id=""leftBlock"" class=""leftBlock"">
                        <p style=""font-family: 'Times New Roman', Times, serif; font-size: 18px;"">$1</p>
                        <p style=""font-family: 'Times New Roman', Times, serif; font-size: 18px; margin-top: 5px; color: #666;"">Press ""F"" key</p>
                    </div>
                    <div id=""rightBlock"" class=""rightBlock"">
                        <p style=""font-family: 'Times New Roman', Times, serif; font-size: 18px;"">$10</p>
                        <p style=""font-family: 'Times New Roman', Times, serif; font-size: 18px; margin-top: 5px; color: #666;"">Press ""J"" key</p>
                    </div>
                </div>

            <div class=""player2Card""><p class=""player2Image""><img src=src/images/yellow_guy.png width=""150""></p>
                <div class=""player2Name""><p>BaSa05</p></div>
            </div>
            </div>
        </div>
        </div>
    </div>","make_choice",1,6,2,1,0.2430896142090005,0.00887423197251019,1,,,,,,,,,,,,,
,,,,,"html-keyboard-response",57,543325,"0.0-11.0-0.0-5.0-1.0","5f2f8574ff256b37b1970220",,,,,,,"<div class=""gameHeader"">
        </div>
    <div class=""offerCard"" style=""height: auto; min-height: 90vh; overflow-y: auto; display: flex; justify-content: center;"">
        <div class=""bidOffer"" style=""overflow-y: auto; display: flex; flex-direction: column; justify-content: center;""><div class=""outcomeText""><p style=""font-family: 'Times New Roman', Times, serif; font-size: 18px;"">You selected $1.00</p>

        <p style=""font-family: 'Times New Roman', Times, serif; font-size: 18px;""><br>Your partner is deciding how much to return.</p></div></div>
    </div>",,,,,,,,,,,,,,,,,,,,,
,,,,,"html-keyboard-response",58,547332,"0.0-11.0-0.0-5.0-2.0","5f2f8574ff256b37b1970220",,,,,,,"<div class=""gameHeader"">
        </div>
    <div class=""offerCard"" style=""height: auto; min-height: 90vh; overflow-y: auto; display: flex; justify-content: center;"">
        <div class=""bidOffer"" style=""overflow-y: auto; display: flex; flex-direction: column; justify-content: center;""><div style=""display: flex; flex-direction: column; align-items: center; justify-content: center; width: 100%;"">
            <div class=""player2Card"" style=""margin-bottom: 20px;"">
                <p class=""player2Image""><img src=src/images/yellow_guy.png width=""150""></p>
                <div class=""player2Name""><p>BaSa05</p></div>
            </div>

            <div style=""background-color: #f8f9fa; border-radius: 10px; padding: 15px; text-align: center; max-width: 400px;"">
                <p style=""font-family: 'Times New Roman', Times, serif; font-size: 18px; margin: 0;"">BaSa05 received <strong>$4.00</strong> and returned <strong>$1.00</strong> to you.</p>
            </div>
        </div></div>
    </div>",,,,,,,,,,,,,,,,,,,,,
,,,,,"html-keyboard-response",59,550033,"0.0-11.0-0.0-5.0-3.0-0.0","5f2f8574ff256b37b1970220",,,,,,,"<div class=""gameHeader"">
        </div>
    <div class=""offerCard"" style=""height: auto; min-height: 90vh; overflow-y: auto; display: flex; justify-content: center;"">
        <div class=""bidOffer"" style=""overflow-y: auto; display: flex; flex-direction: column; justify-content: center;""><div class=""outcomeText""><p style=""font-family: 'Times New Roman', Times, serif; font-size: 18px;"">The next round will begin momentarily.</p>

    <p style=""font-family: 'Times New Roman', Times, serif; font-size: 18px;"">Please wait.</p></div></div>
    </div>",,,,,,,,,,,,,,,,,,,,,
,,,,,"html-keyboard-response",60,551720,"0.0-11.0-0.0-6.0-0.0","5f2f8574ff256b37b1970220",,,1686,"j",,,"<div class=""gameHeader"">
        </div>
    <div class=""offerCard"" style=""height: auto; min-height: 90vh; overflow-y: auto; display: flex; justify-content: center;"">
        <div class=""bidOffer"" style=""overflow-y: auto; display: flex; flex-direction: column; justify-content: center;"">
        <div class=""offers"">
        <div class=""textPrompt""><p style=""font-family: 'Times New Roman', Times, serif; font-size: 18px;"">How much money do you want
        <br>to give ClMa07?</p></div>
            <div class =""trustElements"">
            <div class=""player1Card""><p class=""player1Image""><img src=""src/images/gray_guy.png"" width=""150""></p>
                <div class=""player1Name""><p style=""font-family: 'Times New Roman', Times, serif; font-size: 18px;"">Nisz06</p></div>
            </div>

                <div class=""investmentCard"">
                    <div id=""leftBlock"" class=""leftBlock"">
                        <p style=""font-family: 'Times New Roman', Times, serif; font-size: 18px;"">$1</p>
                        <p style=""font-family: 'Times New Roman', Times, serif; font-size: 18px; margin-top: 5px; color: #666;"">Press ""F"" key</p>
                    </div>
                    <div id=""rightBlock"" class=""rightBlock"">
                        <p style=""font-family: 'Times New Roman', Times, serif; font-size: 18px;"">$10</p>
                        <p style=""font-family: 'Times New Roman', Times, serif; font-size: 18px; margin-top: 5px; color: #666;"">Press ""J"" key</p>
                    </div>
                </div>

            <div class=""player2Card""><p class=""player2Image""><img src=src/images/red_guy.png width=""150""></p>
                <div class=""player2Name""><p>ClMa07</p></div>
            </div>
            </div>
        </div>
        </div>
    </div>","make_choice",3,7,3,2.7,0.053697779818948556,0.014400300516111148,10,,,,,,,,,,,,,
,,,,,"html-keyboard-response",61,553769,"0.0-11.0-0.0-6.0-1.0","5f2f8574ff256b37b1970220",,,,,,,"<div class=""gameHeader"">
        </div>
    <div class=""offerCard"" style=""height: auto; min-height: 90vh; overflow-y: auto; display: flex; justify-content: center;"">
        <div class=""bidOffer"" style=""overflow-y: auto; display: flex; flex-direction: column; justify-content: center;""><div class=""outcomeText""><p style=""font-family: 'Times New Roman', Times, serif; font-size: 18px;"">You selected $10.00</p>

        <p style=""font-family: 'Times New Roman', Times, serif; font-size: 18px;""><br>Your partner is deciding how much to return.</p></div></div>
    </div>",,,,,,,,,,,,,,,,,,,,,
,,,,,"html-keyboard-response",62,557782,"0.0-11.0-0.0-6.0-2.0","5f2f8574ff256b37b1970220",,,,,,,"<div class=""gameHeader"">
        </div>
    <div class=""offerCard"" style=""height: auto; min-height: 90vh; overflow-y: auto; display: flex; justify-content: center;"">
        <div class=""bidOffer"" style=""overflow-y: auto; display: flex; flex-direction: column; justify-content: center;""><div style=""display: flex; flex-direction: column; align-items: center; justify-content: center; width: 100%;"">
            <div class=""player2Card"" style=""margin-bottom: 20px;"">
                <p class=""player2Image""><img src=src/images/red_guy.png width=""150""></p>
                <div class=""player2Name""><p>ClMa07</p></div>
            </div>

            <div style=""background-color: #f8f9fa; border-radius: 10px; padding: 15px; text-align: center; max-width: 400px;"">
                <p style=""font-family: 'Times New Roman', Times, serif; font-size: 18px; margin: 0;"">ClMa07 received <strong>$40.00</strong> and returned <strong>$2.70</strong> to you.</p>
            </div>
        </div></div>
    </div>",,,,,,,,,,,,,,,,,,,,,
,,,,,"html-keyboard-response",63,560021,"0.0-11.0-0.0-6.0-3.0-0.0","5f2f8574ff256b37b1970220",,,,,,,"<div class=""gameHeader"">
        </div>
    <div class=""offerCard"" style=""height: auto; min-height: 90vh; overflow-y: auto; display: flex; justify-content: center;"">
        <div class=""bidOffer"" style=""overflow-y: auto; display: flex; flex-direction: column; justify-content: center;""><div class=""outcomeText""><p style=""font-family: 'Times New Roman', Times, serif; font-size: 18px;"">The next round will begin momentarily.</p>

    <p style=""font-family: 'Times New Roman', Times, serif; font-size: 18px;"">Please wait.</p></div></div>
    </div>",,,,,,,,,,,,,,,,,,,,,
,,,,,"html-keyboard-response",64,561611,"0.0-11.0-0.0-7.0-0.0","5f2f8574ff256b37b1970220",,,1588,"f",,,"<div class=""gameHeader"">
        </div>
    <div class=""offerCard"" style=""height: auto; min-height: 90vh; overflow-y: auto; display: flex; justify-content: center;"">
        <div class=""bidOffer"" style=""overflow-y: auto; display: flex; flex-direction: column; justify-content: center;"">
        <div class=""offers"">
        <div class=""textPrompt""><p style=""font-family: 'Times New Roman', Times, serif; font-size: 18px;"">How much money do you want
        <br>to give GePl01?</p></div>
            <div class =""trustElements"">
            <div class=""player1Card""><p class=""player1Image""><img src=""src/images/gray_guy.png"" width=""150""></p>
                <div class=""player1Name""><p style=""font-family: 'Times New Roman', Times, serif; font-size: 18px;"">Nisz06</p></div>
            </div>

                <div class=""investmentCard"">
                    <div id=""leftBlock"" class=""leftBlock"">
                        <p style=""font-family: 'Times New Roman', Times, serif; font-size: 18px;"">$1</p>
                        <p style=""font-family: 'Times New Roman', Times, serif; font-size: 18px; margin-top: 5px; color: #666;"">Press ""F"" key</p>
                    </div>
                    <div id=""rightBlock"" class=""rightBlock"">
                        <p style=""font-family: 'Times New Roman', Times, serif; font-size: 18px;"">$10</p>
                        <p style=""font-family: 'Times New Roman', Times, serif; font-size: 18px; margin-top: 5px; color: #666;"">Press ""J"" key</p>
                    </div>
                </div>

            <div class=""player2Card""><p class=""player2Image""><img src=src/images/green_guy.png width=""150""></p>
                <div class=""player2Name""><p>GePl01</p></div>
            </div>
            </div>
        </div>
        </div>
    </div>","make_choice",2,8,3,0.2,0.055559770970180784,-0.0005697652040665868,1,,,,,,,,,,,,,
,,,,,"html-keyboard-response",65,565596,"0.0-11.0-0.0-7.0-1.0","5f2f8574ff256b37b1970220",,,,,,,"<div class=""gameHeader"">
        </div>
    <div class=""offerCard"" style=""height: auto; min-height: 90vh; overflow-y: auto; display: flex; justify-content: center;"">
        <div class=""bidOffer"" style=""overflow-y: auto; display: flex; flex-direction: column; justify-content: center;""><div class=""outcomeText""><p style=""font-family: 'Times New Roman', Times, serif; font-size: 18px;"">You selected $1.00</p>

        <p style=""font-family: 'Times New Roman', Times, serif; font-size: 18px;""><br>Your partner is deciding how much to return.</p></div></div>
    </div>",,,,,,,,,,,,,,,,,,,,,
,,,,,"html-keyboard-response",66,569609,"0.0-11.0-0.0-7.0-2.0","5f2f8574ff256b37b1970220",,,,,,,"<div class=""gameHeader"">
        </div>
    <div class=""offerCard"" style=""height: auto; min-height: 90vh; overflow-y: auto; display: flex; justify-content: center;"">
        <div class=""bidOffer"" style=""overflow-y: auto; display: flex; flex-direction: column; justify-content: center;""><div style=""display: flex; flex-direction: column; align-items: center; justify-content: center; width: 100%;"">
            <div class=""player2Card"" style=""margin-bottom: 20px;"">
                <p class=""player2Image""><img src=src/images/green_guy.png width=""150""></p>
                <div class=""player2Name""><p>GePl01</p></div>
            </div>

            <div style=""background-color: #f8f9fa; border-radius: 10px; padding: 15px; text-align: center; max-width: 400px;"">
                <p style=""font-family: 'Times New Roman', Times, serif; font-size: 18px; margin: 0;"">GePl01 received <strong>$4.00</strong> and returned <strong>$0.20</strong> to you.</p>
            </div>
        </div></div>
    </div>",,,,,,,,,,,,,,,,,,,,,
,,,,,"html-keyboard-response",67,573312,"0.0-11.0-0.0-7.0-3.0-0.0","5f2f8574ff256b37b1970220",,,,,,,"<div class=""gameHeader"">
        </div>
    <div class=""offerCard"" style=""height: auto; min-height: 90vh; overflow-y: auto; display: flex; justify-content: center;"">
        <div class=""bidOffer"" style=""overflow-y: auto; display: flex; flex-direction: column; justify-content: center;""><div class=""outcomeText""><p style=""font-family: 'Times New Roman', Times, serif; font-size: 18px;"">The next round will begin momentarily.</p>

    <p style=""font-family: 'Times New Roman', Times, serif; font-size: 18px;"">Please wait.</p></div></div>
    </div>",,,,,,,,,,,,,,,,,,,,,
,,,,,"html-keyboard-response",68,573666,"0.0-11.0-0.0-8.0-0.0","5f2f8574ff256b37b1970220",,,352,"j",,,"<div class=""gameHeader"">
        </div>
    <div class=""offerCard"" style=""height: auto; min-height: 90vh; overflow-y: auto; display: flex; justify-content: center;"">
        <div class=""bidOffer"" style=""overflow-y: auto; display: flex; flex-direction: column; justify-content: center;"">
        <div class=""offers"">
        <div class=""textPrompt""><p style=""font-family: 'Times New Roman', Times, serif; font-size: 18px;"">How much money do you want
        <br>to give ClMa07?</p></div>
            <div class =""trustElements"">
            <div class=""player1Card""><p class=""player1Image""><img src=""src/images/gray_guy.png"" width=""150""></p>
                <div class=""player1Name""><p style=""font-family: 'Times New Roman', Times, serif; font-size: 18px;"">Nisz06</p></div>
            </div>

                <div class=""investmentCard"">
                    <div id=""leftBlock"" class=""leftBlock"">
                        <p style=""font-family: 'Times New Roman', Times, serif; font-size: 18px;"">$1</p>
                        <p style=""font-family: 'Times New Roman', Times, serif; font-size: 18px; margin-top: 5px; color: #666;"">Press ""F"" key</p>
                    </div>
                    <div id=""rightBlock"" class=""rightBlock"">
                        <p style=""font-family: 'Times New Roman', Times, serif; font-size: 18px;"">$10</p>
                        <p style=""font-family: 'Times New Roman', Times, serif; font-size: 18px; margin-top: 5px; color: #666;"">Press ""J"" key</p>
                    </div>
                </div>

            <div class=""player2Card""><p class=""player2Image""><img src=src/images/red_guy.png width=""150""></p>
                <div class=""player2Name""><p>ClMa07</p></div>
            </div>
            </div>
        </div>
        </div>
    </div>","make_choice",3,9,3,2.1,0.05497422298213595,-0.0016281374945026723,10,,,,,,,,,,,,,
,,,,,"html-keyboard-response",69,576653,"0.0-11.0-0.0-8.0-1.0","5f2f8574ff256b37b1970220",,,,,,,"<div class=""gameHeader"">
        </div>
    <div class=""offerCard"" style=""height: auto; min-height: 90vh; overflow-y: auto; display: flex; justify-content: center;"">
        <div class=""bidOffer"" style=""overflow-y: auto; display: flex; flex-direction: column; justify-content: center;""><div class=""outcomeText""><p style=""font-family: 'Times New Roman', Times, serif; font-size: 18px;"">You selected $10.00</p>

        <p style=""font-family: 'Times New Roman', Times, serif; font-size: 18px;""><br>Your partner is deciding how much to return.</p></div></div>
    </div>",,,,,,,,,,,,,,,,,,,,,
,,,,,"html-keyboard-response",70,580666,"0.0-11.0-0.0-8.0-2.0","5f2f8574ff256b37b1970220",,,,,,,"<div class=""gameHeader"">
        </div>
    <div class=""offerCard"" style=""height: auto; min-height: 90vh; overflow-y: auto; display: flex; justify-content: center;"">
        <div class=""bidOffer"" style=""overflow-y: auto; display: flex; flex-direction: column; justify-content: center;""><div style=""display: flex; flex-direction: column; align-items: center; justify-content: center; width: 100%;"">
            <div class=""player2Card"" style=""margin-bottom: 20px;"">
                <p class=""player2Image""><img src=src/images/red_guy.png width=""150""></p>
                <div class=""player2Name""><p>ClMa07</p></div>
            </div>

            <div style=""background-color: #f8f9fa; border-radius: 10px; padding: 15px; text-align: center; max-width: 400px;"">
                <p style=""font-family: 'Times New Roman', Times, serif; font-size: 18px; margin: 0;"">ClMa07 received <strong>$40.00</strong> and returned <strong>$2.10</strong> to you.</p>
            </div>
        </div></div>
    </div>",,,,,,,,,,,,,,,,,,,,,
,,,,,"html-keyboard-response",71,582995,"0.0-11.0-0.0-8.0-3.0-0.0","5f2f8574ff256b37b1970220",,,,,,,"<div class=""gameHeader"">
        </div>
    <div class=""offerCard"" style=""height: auto; min-height: 90vh; overflow-y: auto; display: flex; justify-content: center;"">
        <div class=""bidOffer"" style=""overflow-y: auto; display: flex; flex-direction: column; justify-content: center;""><div class=""outcomeText""><p style=""font-family: 'Times New Roman', Times, serif; font-size: 18px;"">The next round will begin momentarily.</p>

    <p style=""font-family: 'Times New Roman', Times, serif; font-size: 18px;"">Please wait.</p></div></div>
    </div>",,,,,,,,,,,,,,,,,,,,,
,,,,,"html-keyboard-response",72,584805,"0.0-11.0-0.0-9.0-0.0","5f2f8574ff256b37b1970220",,,1808,"j",,,"<div class=""gameHeader"">
        </div>
    <div class=""offerCard"" style=""height: auto; min-height: 90vh; overflow-y: auto; display: flex; justify-content: center;"">
        <div class=""bidOffer"" style=""overflow-y: auto; display: flex; flex-direction: column; justify-content: center;"">
        <div class=""offers"">
        <div class=""textPrompt""><p style=""font-family: 'Times New Roman', Times, serif; font-size: 18px;"">How much money do you want
        <br>to give GePl01?</p></div>
            <div class =""trustElements"">
            <div class=""player1Card""><p class=""player1Image""><img src=""src/images/gray_guy.png"" width=""150""></p>
                <div class=""player1Name""><p style=""font-family: 'Times New Roman', Times, serif; font-size: 18px;"">Nisz06</p></div>
            </div>

                <div class=""investmentCard"">
                    <div id=""leftBlock"" class=""leftBlock"">
                        <p style=""font-family: 'Times New Roman', Times, serif; font-size: 18px;"">$1</p>
                        <p style=""font-family: 'Times New Roman', Times, serif; font-size: 18px; margin-top: 5px; color: #666;"">Press ""F"" key</p>
                    </div>
                    <div id=""rightBlock"" class=""rightBlock"">
                        <p style=""font-family: 'Times New Roman', Times, serif; font-size: 18px;"">$10</p>
                        <p style=""font-family: 'Times New Roman', Times, serif; font-size: 18px; margin-top: 5px; color: #666;"">Press ""J"" key</p>
                    </div>
                </div>

            <div class=""player2Card""><p class=""player2Image""><img src=src/images/green_guy.png width=""150""></p>
                <div class=""player2Name""><p>GePl01</p></div>
            </div>
            </div>
        </div>
        </div>
    </div>","make_choice",2,10,4,1.4,0.0467755514044035,-0.011963904194099546,10,,,,,,,,,,,,,
,,,,,"html-keyboard-response",73,587421,"0.0-11.0-0.0-9.0-1.0","5f2f8574ff256b37b1970220",,,,,,,"<div class=""gameHeader"">
        </div>
    <div class=""offerCard"" style=""height: auto; min-height: 90vh; overflow-y: auto; display: flex; justify-content: center;"">
        <div class=""bidOffer"" style=""overflow-y: auto; display: flex; flex-direction: column; justify-content: center;""><div class=""outcomeText""><p style=""font-family: 'Times New Roman', Times, serif; font-size: 18px;"">You selected $10.00</p>

        <p style=""font-family: 'Times New Roman', Times, serif; font-size: 18px;""><br>Your partner is deciding how much to return.</p></div></div>
    </div>",,,,,,,,,,,,,,,,,,,,,
,,,,,"html-keyboard-response",74,591436,"0.0-11.0-0.0-9.0-2.0","5f2f8574ff256b37b1970220",,,,,,,"<div class=""gameHeader"">
        </div>
    <div class=""offerCard"" style=""height: auto; min-height: 90vh; overflow-y: auto; display: flex; justify-content: center;"">
        <div class=""bidOffer"" style=""overflow-y: auto; display: flex; flex-direction: column; justify-content: center;""><div style=""display: flex; flex-direction: column; align-items: center; justify-content: center; width: 100%;"">
            <div class=""player2Card"" style=""margin-bottom: 20px;"">
                <p class=""player2Image""><img src=src/images/green_guy.png width=""150""></p>
                <div class=""player2Name""><p>GePl01</p></div>
            </div>

            <div style=""background-color: #f8f9fa; border-radius: 10px; padding: 15px; text-align: center; max-width: 400px;"">
                <p style=""font-family: 'Times New Roman', Times, serif; font-size: 18px; margin: 0;"">GePl01 received <strong>$40.00</strong> and returned <strong>$1.40</strong> to you.</p>
            </div>
        </div></div>
    </div>",,,,,,,,,,,,,,,,,,,,,
,,,,,"html-keyboard-response",75,593891,"0.0-11.0-0.0-9.0-3.0-0.0","5f2f8574ff256b37b1970220",,,,,,,"<div class=""gameHeader"">
        </div>
    <div class=""offerCard"" style=""height: auto; min-height: 90vh; overflow-y: auto; display: flex; justify-content: center;"">
        <div class=""bidOffer"" style=""overflow-y: auto; display: flex; flex-direction: column; justify-content: center;""><div class=""outcomeText""><p style=""font-family: 'Times New Roman', Times, serif; font-size: 18px;"">The next round will begin momentarily.</p>

    <p style=""font-family: 'Times New Roman', Times, serif; font-size: 18px;"">Please wait.</p></div></div>
    </div>",,,,,,,,,,,,,,,,,,,,,
,,,,,"html-keyboard-response",76,595528,"0.0-11.0-0.0-10.0-0.0","5f2f8574ff256b37b1970220",,,1636,"j",,,"<div class=""gameHeader"">
        </div>
    <div class=""offerCard"" style=""height: auto; min-height: 90vh; overflow-y: auto; display: flex; justify-content: center;"">
        <div class=""bidOffer"" style=""overflow-y: auto; display: flex; flex-direction: column; justify-content: center;"">
        <div class=""offers"">
        <div class=""textPrompt""><p style=""font-family: 'Times New Roman', Times, serif; font-size: 18px;"">How much money do you want
        <br>to give BaSa05?</p></div>
            <div class =""trustElements"">
            <div class=""player1Card""><p class=""player1Image""><img src=""src/images/gray_guy.png"" width=""150""></p>
                <div class=""player1Name""><p style=""font-family: 'Times New Roman', Times, serif; font-size: 18px;"">Nisz06</p></div>
            </div>

                <div class=""investmentCard"">
                    <div id=""leftBlock"" class=""leftBlock"">
                        <p style=""font-family: 'Times New Roman', Times, serif; font-size: 18px;"">$1</p>
                        <p style=""font-family: 'Times New Roman', Times, serif; font-size: 18px; margin-top: 5px; color: #666;"">Press ""F"" key</p>
                    </div>
                    <div id=""rightBlock"" class=""rightBlock"">
                        <p style=""font-family: 'Times New Roman', Times, serif; font-size: 18px;"">$10</p>
                        <p style=""font-family: 'Times New Roman', Times, serif; font-size: 18px; margin-top: 5px; color: #666;"">Press ""J"" key</p>
                    </div>
                </div>

            <div class=""player2Card""><p class=""player2Image""><img src=src/images/yellow_guy.png width=""150""></p>
                <div class=""player2Name""><p>BaSa05</p></div>
            </div>
            </div>
        </div>
        </div>
    </div>","make_choice",1,11,4,9.5,0.24517486829016497,-0.008696610896420402,10,,,,,,,,,,,,,
,,,,,"html-keyboard-response",77,598029,"0.0-11.0-0.0-10.0-1.0","5f2f8574ff256b37b1970220",,,,,,,"<div class=""gameHeader"">
        </div>
    <div class=""offerCard"" style=""height: auto; min-height: 90vh; overflow-y: auto; display: flex; justify-content: center;"">
        <div class=""bidOffer"" style=""overflow-y: auto; display: flex; flex-direction: column; justify-content: center;""><div class=""outcomeText""><p style=""font-family: 'Times New Roman', Times, serif; font-size: 18px;"">You selected $10.00</p>

        <p style=""font-family: 'Times New Roman', Times, serif; font-size: 18px;""><br>Your partner is deciding how much to return.</p></div></div>
    </div>",,,,,,,,,,,,,,,,,,,,,
,,,,,"html-keyboard-response",78,602040,"0.0-11.0-0.0-10.0-2.0","5f2f8574ff256b37b1970220",,,,,,,"<div class=""gameHeader"">
        </div>
    <div class=""offerCard"" style=""height: auto; min-height: 90vh; overflow-y: auto; display: flex; justify-content: center;"">
        <div class=""bidOffer"" style=""overflow-y: auto; display: flex; flex-direction: column; justify-content: center;""><div style=""display: flex; flex-direction: column; align-items: center; justify-content: center; width: 100%;"">
            <div class=""player2Card"" style=""margin-bottom: 20px;"">
                <p class=""player2Image""><img src=src/images/yellow_guy.png width=""150""></p>
                <div class=""player2Name""><p>BaSa05</p></div>
            </div>

            <div style=""background-color: #f8f9fa; border-radius: 10px; padding: 15px; text-align: center; max-width: 400px;"">
                <p style=""font-family: 'Times New Roman', Times, serif; font-size: 18px; margin: 0;"">BaSa05 received <strong>$40.00</strong> and returned <strong>$9.50</strong> to you.</p>
            </div>
        </div></div>
    </div>",,,,,,,,,,,,,,,,,,,,,
,,,,,"html-keyboard-response",79,605145,"0.0-11.0-0.0-10.0-3.0-0.0","5f2f8574ff256b37b1970220",,,,,,,"<div class=""gameHeader"">
        </div>
    <div class=""offerCard"" style=""height: auto; min-height: 90vh; overflow-y: auto; display: flex; justify-content: center;"">
        <div class=""bidOffer"" style=""overflow-y: auto; display: flex; flex-direction: column; justify-content: center;""><div class=""outcomeText""><p style=""font-family: 'Times New Roman', Times, serif; font-size: 18px;"">The next round will begin momentarily.</p>

    <p style=""font-family: 'Times New Roman', Times, serif; font-size: 18px;"">Please wait.</p></div></div>
    </div>",,,,,,,,,,,,,,,,,,,,,
,,,,,"html-keyboard-response",80,607334,"0.0-11.0-0.0-11.0-0.0","5f2f8574ff256b37b1970220",,,2187,"j",,,"<div class=""gameHeader"">
        </div>
    <div class=""offerCard"" style=""height: auto; min-height: 90vh; overflow-y: auto; display: flex; justify-content: center;"">
        <div class=""bidOffer"" style=""overflow-y: auto; display: flex; flex-direction: column; justify-content: center;"">
        <div class=""offers"">
        <div class=""textPrompt""><p style=""font-family: 'Times New Roman', Times, serif; font-size: 18px;"">How much money do you want
        <br>to give KeJo05?</p></div>
            <div class =""trustElements"">
            <div class=""player1Card""><p class=""player1Image""><img src=""src/images/gray_guy.png"" width=""150""></p>
                <div class=""player1Name""><p style=""font-family: 'Times New Roman', Times, serif; font-size: 18px;"">Nisz06</p></div>
            </div>

                <div class=""investmentCard"">
                    <div id=""leftBlock"" class=""leftBlock"">
                        <p style=""font-family: 'Times New Roman', Times, serif; font-size: 18px;"">$1</p>
                        <p style=""font-family: 'Times New Roman', Times, serif; font-size: 18px; margin-top: 5px; color: #666;"">Press ""F"" key</p>
                    </div>
                    <div id=""rightBlock"" class=""rightBlock"">
                        <p style=""font-family: 'Times New Roman', Times, serif; font-size: 18px;"">$10</p>
                        <p style=""font-family: 'Times New Roman', Times, serif; font-size: 18px; margin-top: 5px; color: #666;"">Press ""J"" key</p>
                    </div>
                </div>

            <div class=""player2Card""><p class=""player2Image""><img src=src/images/blue_guy.png width=""150""></p>
                <div class=""player2Name""><p>KeJo05</p></div>
            </div>
            </div>
        </div>
        </div>
    </div>","make_choice",0,12,4,8.9,0.24950016846384265,-0.025917665234065725,10,,,,,,,,,,,,,
,,,,,"html-keyboard-response",81,610795,"0.0-11.0-0.0-11.0-1.0","5f2f8574ff256b37b1970220",,,,,,,"<div class=""gameHeader"">
        </div>
    <div class=""offerCard"" style=""height: auto; min-height: 90vh; overflow-y: auto; display: flex; justify-content: center;"">
        <div class=""bidOffer"" style=""overflow-y: auto; display: flex; flex-direction: column; justify-content: center;""><div class=""outcomeText""><p style=""font-family: 'Times New Roman', Times, serif; font-size: 18px;"">You selected $10.00</p>

        <p style=""font-family: 'Times New Roman', Times, serif; font-size: 18px;""><br>Your partner is deciding how much to return.</p></div></div>
    </div>",,,,,,,,,,,,,,,,,,,,,
,,,,,"html-keyboard-response",82,614799,"0.0-11.0-0.0-11.0-2.0","5f2f8574ff256b37b1970220",,,,,,,"<div class=""gameHeader"">
        </div>
    <div class=""offerCard"" style=""height: auto; min-height: 90vh; overflow-y: auto; display: flex; justify-content: center;"">
        <div class=""bidOffer"" style=""overflow-y: auto; display: flex; flex-direction: column; justify-content: center;""><div style=""display: flex; flex-direction: column; align-items: center; justify-content: center; width: 100%;"">
            <div class=""player2Card"" style=""margin-bottom: 20px;"">
                <p class=""player2Image""><img src=src/images/blue_guy.png width=""150""></p>
                <div class=""player2Name""><p>KeJo05</p></div>
            </div>

            <div style=""background-color: #f8f9fa; border-radius: 10px; padding: 15px; text-align: center; max-width: 400px;"">
                <p style=""font-family: 'Times New Roman', Times, serif; font-size: 18px; margin: 0;"">KeJo05 received <strong>$40.00</strong> and returned <strong>$8.90</strong> to you.</p>
            </div>
        </div></div>
    </div>",,,,,,,,,,,,,,,,,,,,,
,,,,,"html-keyboard-response",83,617681,"0.0-11.0-0.0-11.0-3.0-0.0","5f2f8574ff256b37b1970220",,,,,,,"<div class=""gameHeader"">
        </div>
    <div class=""offerCard"" style=""height: auto; min-height: 90vh; overflow-y: auto; display: flex; justify-content: center;"">
        <div class=""bidOffer"" style=""overflow-y: auto; display: flex; flex-direction: column; justify-content: center;""><div class=""outcomeText""><p style=""font-family: 'Times New Roman', Times, serif; font-size: 18px;"">The next round will begin momentarily.</p>

    <p style=""font-family: 'Times New Roman', Times, serif; font-size: 18px;"">Please wait.</p></div></div>
    </div>",,,,,,,,,,,,,,,,,,,,,
,,,,,"html-keyboard-response",84,619368,"0.0-11.0-0.0-12.0-0.0","5f2f8574ff256b37b1970220",,,1686,"f",,,"<div class=""gameHeader"">
        </div>
    <div class=""offerCard"" style=""height: auto; min-height: 90vh; overflow-y: auto; display: flex; justify-content: center;"">
        <div class=""bidOffer"" style=""overflow-y: auto; display: flex; flex-direction: column; justify-content: center;"">
        <div class=""offers"">
        <div class=""textPrompt""><p style=""font-family: 'Times New Roman', Times, serif; font-size: 18px;"">How much money do you want
        <br>to give ClMa07?</p></div>
            <div class =""trustElements"">
            <div class=""player1Card""><p class=""player1Image""><img src=""src/images/gray_guy.png"" width=""150""></p>
                <div class=""player1Name""><p style=""font-family: 'Times New Roman', Times, serif; font-size: 18px;"">Nisz06</p></div>
            </div>

                <div class=""investmentCard"">
                    <div id=""leftBlock"" class=""leftBlock"">
                        <p style=""font-family: 'Times New Roman', Times, serif; font-size: 18px;"">$1</p>
                        <p style=""font-family: 'Times New Roman', Times, serif; font-size: 18px; margin-top: 5px; color: #666;"">Press ""F"" key</p>
                    </div>
                    <div id=""rightBlock"" class=""rightBlock"">
                        <p style=""font-family: 'Times New Roman', Times, serif; font-size: 18px;"">$10</p>
                        <p style=""font-family: 'Times New Roman', Times, serif; font-size: 18px; margin-top: 5px; color: #666;"">Press ""J"" key</p>
                    </div>
                </div>

            <div class=""player2Card""><p class=""player2Image""><img src=src/images/red_guy.png width=""150""></p>
                <div class=""player2Name""><p>ClMa07</p></div>
            </div>
            </div>
        </div>
        </div>
    </div>","make_choice",3,13,5,0.2,0.0547512906959647,-0.005809955331660243,1,,,,,,,,,,,,,
,,,,,"html-keyboard-response",85,622470,"0.0-11.0-0.0-12.0-1.0","5f2f8574ff256b37b1970220",,,,,,,"<div class=""gameHeader"">
        </div>
    <div class=""offerCard"" style=""height: auto; min-height: 90vh; overflow-y: auto; display: flex; justify-content: center;"">
        <div class=""bidOffer"" style=""overflow-y: auto; display: flex; flex-direction: column; justify-content: center;""><div class=""outcomeText""><p style=""font-family: 'Times New Roman', Times, serif; font-size: 18px;"">You selected $1.00</p>

        <p style=""font-family: 'Times New Roman', Times, serif; font-size: 18px;""><br>Your partner is deciding how much to return.</p></div></div>
    </div>",,,,,,,,,,,,,,,,,,,,,
,,,,,"html-keyboard-response",86,626480,"0.0-11.0-0.0-12.0-2.0","5f2f8574ff256b37b1970220",,,,,,,"<div class=""gameHeader"">
        </div>
    <div class=""offerCard"" style=""height: auto; min-height: 90vh; overflow-y: auto; display: flex; justify-content: center;"">
        <div class=""bidOffer"" style=""overflow-y: auto; display: flex; flex-direction: column; justify-content: center;""><div style=""display: flex; flex-direction: column; align-items: center; justify-content: center; width: 100%;"">
            <div class=""player2Card"" style=""margin-bottom: 20px;"">
                <p class=""player2Image""><img src=src/images/red_guy.png width=""150""></p>
                <div class=""player2Name""><p>ClMa07</p></div>
            </div>

            <div style=""background-color: #f8f9fa; border-radius: 10px; padding: 15px; text-align: center; max-width: 400px;"">
                <p style=""font-family: 'Times New Roman', Times, serif; font-size: 18px; margin: 0;"">ClMa07 received <strong>$4.00</strong> and returned <strong>$0.20</strong> to you.</p>
            </div>
        </div></div>
    </div>",,,,,,,,,,,,,,,,,,,,,
,,,,,"html-keyboard-response",87,628571,"0.0-11.0-0.0-12.0-3.0-0.0","5f2f8574ff256b37b1970220",,,,,,,"<div class=""gameHeader"">
        </div>
    <div class=""offerCard"" style=""height: auto; min-height: 90vh; overflow-y: auto; display: flex; justify-content: center;"">
        <div class=""bidOffer"" style=""overflow-y: auto; display: flex; flex-direction: column; justify-content: center;""><div class=""outcomeText""><p style=""font-family: 'Times New Roman', Times, serif; font-size: 18px;"">The next round will begin momentarily.</p>

    <p style=""font-family: 'Times New Roman', Times, serif; font-size: 18px;"">Please wait.</p></div></div>
    </div>",,,,,,,,,,,,,,,,,,,,,
,,,,,"html-keyboard-response",88,630722,"0.0-11.0-0.0-13.0-0.0","5f2f8574ff256b37b1970220",,,2149,"f",,,"<div class=""gameHeader"">
        </div>
    <div class=""offerCard"" style=""height: auto; min-height: 90vh; overflow-y: auto; display: flex; justify-content: center;"">
        <div class=""bidOffer"" style=""overflow-y: auto; display: flex; flex-direction: column; justify-content: center;"">
        <div class=""offers"">
        <div class=""textPrompt""><p style=""font-family: 'Times New Roman', Times, serif; font-size: 18px;"">How much money do you want
        <br>to give KeJo05?</p></div>
            <div class =""trustElements"">
            <div class=""player1Card""><p class=""player1Image""><img src=""src/images/gray_guy.png"" width=""150""></p>
                <div class=""player1Name""><p style=""font-family: 'Times New Roman', Times, serif; font-size: 18px;"">Nisz06</p></div>
            </div>

                <div class=""investmentCard"">
                    <div id=""leftBlock"" class=""leftBlock"">
                        <p style=""font-family: 'Times New Roman', Times, serif; font-size: 18px;"">$1</p>
                        <p style=""font-family: 'Times New Roman', Times, serif; font-size: 18px; margin-top: 5px; color: #666;"">Press ""F"" key</p>
                    </div>
                    <div id=""rightBlock"" class=""rightBlock"">
                        <p style=""font-family: 'Times New Roman', Times, serif; font-size: 18px;"">$10</p>
                        <p style=""font-family: 'Times New Roman', Times, serif; font-size: 18px; margin-top: 5px; color: #666;"">Press ""J"" key</p>
                    </div>
                </div>

            <div class=""player2Card""><p class=""player2Image""><img src=src/images/blue_guy.png width=""150""></p>
                <div class=""player2Name""><p>KeJo05</p></div>
            </div>
            </div>
        </div>
        </div>
    </div>","make_choice",0,14,5,1,0.25740361806229306,-0.0007838574190112108,1,,,,,,,,,,,,,
,,,,,"html-keyboard-response",89,634504,"0.0-11.0-0.0-13.0-1.0","5f2f8574ff256b37b1970220",,,,,,,"<div class=""gameHeader"">
        </div>
    <div class=""offerCard"" style=""height: auto; min-height: 90vh; overflow-y: auto; display: flex; justify-content: center;"">
        <div class=""bidOffer"" style=""overflow-y: auto; display: flex; flex-direction: column; justify-content: center;""><div class=""outcomeText""><p style=""font-family: 'Times New Roman', Times, serif; font-size: 18px;"">You selected $1.00</p>

        <p style=""font-family: 'Times New Roman', Times, serif; font-size: 18px;""><br>Your partner is deciding how much to return.</p></div></div>
    </div>",,,,,,,,,,,,,,,,,,,,,
,,,,,"html-keyboard-response",90,638513,"0.0-11.0-0.0-13.0-2.0","5f2f8574ff256b37b1970220",,,,,,,"<div class=""gameHeader"">
        </div>
    <div class=""offerCard"" style=""height: auto; min-height: 90vh; overflow-y: auto; display: flex; justify-content: center;"">
        <div class=""bidOffer"" style=""overflow-y: auto; display: flex; flex-direction: column; justify-content: center;""><div style=""display: flex; flex-direction: column; align-items: center; justify-content: center; width: 100%;"">
            <div class=""player2Card"" style=""margin-bottom: 20px;"">
                <p class=""player2Image""><img src=src/images/blue_guy.png width=""150""></p>
                <div class=""player2Name""><p>KeJo05</p></div>
            </div>

            <div style=""background-color: #f8f9fa; border-radius: 10px; padding: 15px; text-align: center; max-width: 400px;"">
                <p style=""font-family: 'Times New Roman', Times, serif; font-size: 18px; margin: 0;"">KeJo05 received <strong>$4.00</strong> and returned <strong>$1.00</strong> to you.</p>
            </div>
        </div></div>
    </div>",,,,,,,,,,,,,,,,,,,,,
,,,,,"html-keyboard-response",91,641583,"0.0-11.0-0.0-13.0-3.0-0.0","5f2f8574ff256b37b1970220",,,,,,,"<div class=""gameHeader"">
        </div>
    <div class=""offerCard"" style=""height: auto; min-height: 90vh; overflow-y: auto; display: flex; justify-content: center;"">
        <div class=""bidOffer"" style=""overflow-y: auto; display: flex; flex-direction: column; justify-content: center;""><div class=""outcomeText""><p style=""font-family: 'Times New Roman', Times, serif; font-size: 18px;"">The next round will begin momentarily.</p>

    <p style=""font-family: 'Times New Roman', Times, serif; font-size: 18px;"">Please wait.</p></div></div>
    </div>",,,,,,,,,,,,,,,,,,,,,
,,,,,"html-keyboard-response",92,644806,"0.0-11.0-0.0-14.0-0.0","5f2f8574ff256b37b1970220",,,3222,"j",,,"<div class=""gameHeader"">
        </div>
    <div class=""offerCard"" style=""height: auto; min-height: 90vh; overflow-y: auto; display: flex; justify-content: center;"">
        <div class=""bidOffer"" style=""overflow-y: auto; display: flex; flex-direction: column; justify-content: center;"">
        <div class=""offers"">
        <div class=""textPrompt""><p style=""font-family: 'Times New Roman', Times, serif; font-size: 18px;"">How much money do you want
        <br>to give BaSa05?</p></div>
            <div class =""trustElements"">
            <div class=""player1Card""><p class=""player1Image""><img src=""src/images/gray_guy.png"" width=""150""></p>
                <div class=""player1Name""><p style=""font-family: 'Times New Roman', Times, serif; font-size: 18px;"">Nisz06</p></div>
            </div>

                <div class=""investmentCard"">
                    <div id=""leftBlock"" class=""leftBlock"">
                        <p style=""font-family: 'Times New Roman', Times, serif; font-size: 18px;"">$1</p>
                        <p style=""font-family: 'Times New Roman', Times, serif; font-size: 18px; margin-top: 5px; color: #666;"">Press ""F"" key</p>
                    </div>
                    <div id=""rightBlock"" class=""rightBlock"">
                        <p style=""font-family: 'Times New Roman', Times, serif; font-size: 18px;"">$10</p>
                        <p style=""font-family: 'Times New Roman', Times, serif; font-size: 18px; margin-top: 5px; color: #666;"">Press ""J"" key</p>
                    </div>
                </div>

            <div class=""player2Card""><p class=""player2Image""><img src=src/images/yellow_guy.png width=""150""></p>
                <div class=""player2Name""><p>BaSa05</p></div>
            </div>
            </div>
        </div>
        </div>
    </div>","make_choice",1,15,5,10.8,0.26697010355816536,0.003596301842747685,10,,,,,,,,,,,,,
,,,,,"html-keyboard-response",93,647574,"0.0-11.0-0.0-14.0-1.0","5f2f8574ff256b37b1970220",,,,,,,"<div class=""gameHeader"">
        </div>
    <div class=""offerCard"" style=""height: auto; min-height: 90vh; overflow-y: auto; display: flex; justify-content: center;"">
        <div class=""bidOffer"" style=""overflow-y: auto; display: flex; flex-direction: column; justify-content: center;""><div class=""outcomeText""><p style=""font-family: 'Times New Roman', Times, serif; font-size: 18px;"">You selected $10.00</p>

        <p style=""font-family: 'Times New Roman', Times, serif; font-size: 18px;""><br>Your partner is deciding how much to return.</p></div></div>
    </div>",,,,,,,,,,,,,,,,,,,,,
,,,,,"html-keyboard-response",94,651587,"0.0-11.0-0.0-14.0-2.0","5f2f8574ff256b37b1970220",,,,,,,"<div class=""gameHeader"">
        </div>
    <div class=""offerCard"" style=""height: auto; min-height: 90vh; overflow-y: auto; display: flex; justify-content: center;"">
        <div class=""bidOffer"" style=""overflow-y: auto; display: flex; flex-direction: column; justify-content: center;""><div style=""display: flex; flex-direction: column; align-items: center; justify-content: center; width: 100%;"">
            <div class=""player2Card"" style=""margin-bottom: 20px;"">
                <p class=""player2Image""><img src=src/images/yellow_guy.png width=""150""></p>
                <div class=""player2Name""><p>BaSa05</p></div>
            </div>

            <div style=""background-color: #f8f9fa; border-radius: 10px; padding: 15px; text-align: center; max-width: 400px;"">
                <p style=""font-family: 'Times New Roman', Times, serif; font-size: 18px; margin: 0;"">BaSa05 received <strong>$40.00</strong> and returned <strong>$10.80</strong> to you.</p>
            </div>
        </div></div>
    </div>",,,,,,,,,,,,,,,,,,,,,
,,,,,"html-keyboard-response",95,654999,"0.0-11.0-0.0-14.0-3.0-0.0","5f2f8574ff256b37b1970220",,,,,,,"<div class=""gameHeader"">
        </div>
    <div class=""offerCard"" style=""height: auto; min-height: 90vh; overflow-y: auto; display: flex; justify-content: center;"">
        <div class=""bidOffer"" style=""overflow-y: auto; display: flex; flex-direction: column; justify-content: center;""><div class=""outcomeText""><p style=""font-family: 'Times New Roman', Times, serif; font-size: 18px;"">The next round will begin momentarily.</p>

    <p style=""font-family: 'Times New Roman', Times, serif; font-size: 18px;"">Please wait.</p></div></div>
    </div>",,,,,,,,,,,,,,,,,,,,,
,,,,,"html-keyboard-response",96,657379,"0.0-11.0-0.0-15.0-0.0","5f2f8574ff256b37b1970220",,,2379,"j",,,"<div class=""gameHeader"">
        </div>
    <div class=""offerCard"" style=""height: auto; min-height: 90vh; overflow-y: auto; display: flex; justify-content: center;"">
        <div class=""bidOffer"" style=""overflow-y: auto; display: flex; flex-direction: column; justify-content: center;"">
        <div class=""offers"">
        <div class=""textPrompt""><p style=""font-family: 'Times New Roman', Times, serif; font-size: 18px;"">How much money do you want
        <br>to give GePl01?</p></div>
            <div class =""trustElements"">
            <div class=""player1Card""><p class=""player1Image""><img src=""src/images/gray_guy.png"" width=""150""></p>
                <div class=""player1Name""><p style=""font-family: 'Times New Roman', Times, serif; font-size: 18px;"">Nisz06</p></div>
            </div>

                <div class=""investmentCard"">
                    <div id=""leftBlock"" class=""leftBlock"">
                        <p style=""font-family: 'Times New Roman', Times, serif; font-size: 18px;"">$1</p>
                        <p style=""font-family: 'Times New Roman', Times, serif; font-size: 18px; margin-top: 5px; color: #666;"">Press ""F"" key</p>
                    </div>
                    <div id=""rightBlock"" class=""rightBlock"">
                        <p style=""font-family: 'Times New Roman', Times, serif; font-size: 18px;"">$10</p>
                        <p style=""font-family: 'Times New Roman', Times, serif; font-size: 18px; margin-top: 5px; color: #666;"">Press ""J"" key</p>
                    </div>
                </div>

