[{"success":true,"timeout":false,"failed_images":[],"failed_audio":[],"failed_video":[],"trial_type":"preload","trial_index":0,"time_elapsed":4959,"internal_node_id":"0.0-0.0","participant_id":"67cdc3c7ea7918dcd6f2ab2d","PID":null},{"success":true,"rt":9162,"trial_type":"fullscreen","trial_index":1,"time_elapsed":15131,"internal_node_id":"0.0-1.0","participant_id":"67cdc3c7ea7918dcd6f2ab2d","PID":null},{"rt":3141,"response":{"participant_id":"67cdc3c7ea7918dcd6f2ab2d"},"trial_type":"survey-html-form","trial_index":2,"time_elapsed":18275,"internal_node_id":"0.0-2.0","participant_id":"67cdc3c7ea7918dcd6f2ab2d","PID":null},{"rt":91836,"response":{"session_username":"CHTH08"},"trial_type":"survey-html-form","trial_index":3,"time_elapsed":110113,"internal_node_id":"0.0-3.0","participant_id":"67cdc3c7ea7918dcd6f2ab2d","PID":null},{"view_history":[{"page_index":0,"viewing_time":6839}],"rt":6839,"trial_type":"instructions","trial_index":4,"time_elapsed":116954,"internal_node_id":"0.0-4.0","participant_id":"67cdc3c7ea7918dcd6f2ab2d","PID":null},{"view_history":[{"page_index":0,"viewing_time":31802},{"page_index":1,"viewing_time":66711},{"page_index":2,"viewing_time":42720},{"page_index":3,"viewing_time":65043}],"rt":206277,"trial_type":"instructions","trial_index":5,"time_elapsed":323232,"internal_node_id":"0.0-5.0-0.0","participant_id":"67cdc3c7ea7918dcd6f2ab2d","PID":null},{"rt":214708,"response":{"min_max":"<span style='font-family: Times New Roman, Times, serif; font-size: 18px;'>$1 minimum, $10 maximum</span>","scenario_1":"<span style='font-family: Times New Roman, Times, serif; font-size: 18px;'>You: $1.50, Partner: $3.50</span>","scenario_2":"<span style='font-family: Times New Roman, Times, serif; font-size: 18px;'>You: $5.00, Partner: $35.00</span>","trials_selected":"<span style='font-family: Times New Roman, Times, serif; font-size: 18px;'>4 trials</span>"},"question_order":[0,1,2,3],"trial_type":"survey-multi-choice","trial_index":6,"time_elapsed":537943,"internal_node_id":"0.0-5.0-1.0","participant_id":"67cdc3c7ea7918dcd6f2ab2d","PID":null},{"rt":10803,"stimulus":"<div class=\"wrapTextBox\"><p style=\"font-family: Times New Roman, Times, serif; font-size: 18px; margin-bottom: 20px;\"><strong>Comprehension Check Results</strong></p><p style=\"font-family: Times New Roman, Times, serif; font-size: 18px; color: green;\">✓ What is the minimum and maximum you can share - Correct</p><p style=\"font-family: Times New Roman, Times, serif; font-size: 18px; color: red;\">❌ If you share $1.00 and partner returns $0.50 - Incorrect</p><p style=\"font-family: Times New Roman, Times, serif; font-size: 18px; color: red;\">❌ If you share $10.00 and partner returns half - Incorrect</p><p style=\"font-family: Times New Roman, Times, serif; font-size: 18px; color: green;\">✓ How many trials determine your bonus payment - Correct</p><p style=\"font-family: Times New Roman, Times, serif; color: red; font-weight: bold; margin-top: 20px; font-size: 18px;\">Some answers were incorrect. Please review the instructions and try again.</p></div>","response":" ","trial_type":"html-keyboard-response","trial_index":7,"time_elapsed":548748,"internal_node_id":"0.0-5.0-2.0","participant_id":"67cdc3c7ea7918dcd6f2ab2d","PID":null},{"view_history":[{"page_index":0,"viewing_time":2357},{"page_index":1,"viewing_time":8480},{"page_index":2,"viewing_time":121025},{"page_index":3,"viewing_time":2634}],"rt":134496,"trial_type":"instructions","trial_index":8,"time_elapsed":683245,"internal_node_id":"0.0-5.1-0.1","participant_id":"67cdc3c7ea7918dcd6f2ab2d","PID":null},{"rt":98215,"response":{"min_max":"<span style='font-family: Times New Roman, Times, serif; font-size: 18px;'>$1 minimum, $10 maximum</span>","scenario_1":"<span style='font-family: Times New Roman, Times, serif; font-size: 18px;'>You: $9.50, Partner: $3.50</span>","scenario_2":"<span style='font-family: Times New Roman, Times, serif; font-size: 18px;'>You: $20.00, Partner: $20.00</span>","trials_selected":"<span style='font-family: Times New Roman, Times, serif; font-size: 18px;'>4 trials</span>"},"question_order":[0,1,2,3],"trial_type":"survey-multi-choice","trial_index":9,"time_elapsed":781462,"internal_node_id":"0.0-5.1-1.1","participant_id":"67cdc3c7ea7918dcd6f2ab2d","PID":null},{"rt":3412,"stimulus":"<div class=\"wrapTextBox\"><p style=\"font-family: Times New Roman, Times, serif; font-size: 18px; margin-bottom: 20px;\"><strong>Comprehension Check Results</strong></p><p style=\"font-family: Times New Roman, Times, serif; font-size: 18px; color: green;\">✓ What is the minimum and maximum you can share - Correct</p><p style=\"font-family: Times New Roman, Times, serif; font-size: 18px; color: green;\">✓ If you share $1.00 and partner returns $0.50 - Correct</p><p style=\"font-family: Times New Roman, Times, serif; font-size: 18px; color: green;\">✓ If you share $10.00 and partner returns half - Correct</p><p style=\"font-family: Times New Roman, Times, serif; font-size: 18px; color: green;\">✓ How many trials determine your bonus payment - Correct</p><p style=\"font-family: Times New Roman, Times, serif; color: green; font-weight: bold; margin-top: 20px; font-size: 18px;\">All answers are correct! You can now proceed to the experiment.</p></div>","response":" ","trial_type":"html-keyboard-response","trial_index":10,"time_elapsed":784876,"internal_node_id":"0.0-5.1-2.1","participant_id":"67cdc3c7ea7918dcd6f2ab2d","PID":null},{"rt":4397,"stimulus":["<div class=\"gameHeader\">\n        </div>\n    <div class=\"offerCard\" style=\"height: auto; min-height: 90vh; overflow-y: auto; display: flex; justify-content: center;\">\n        <div class=\"bidOffer\" style=\"overflow-y: auto; display: flex; flex-direction: column; justify-content: center;\">\n    <div class =\"wrapTextBox\">\n        <p style=\"font-family: 'Times New Roman', Times, serif; font-size: 18px;\">All participants are ready to begin the session.</p>\n        <p style=\"font-family: 'Times New Roman', Times, serif; font-size: 18px;\">Four participants have been randomly matched as your partners for this experiment.</p>\n        <p style=\"font-family: 'Times New Roman', Times, serif; font-size: 18px;\"><strong>Press the spacebar to begin the game!</strong></p>\n    </div>\n    </div>\n    </div>"],"response":" ","trial_type":"html-keyboard-response","trial_index":11,"time_elapsed":789274,"internal_node_id":"0.0-6.0","participant_id":"67cdc3c7ea7918dcd6f2ab2d","PID":null},{"rt":8088,"stimulus":"<div class=\"gameHeader\">\n        </div>\n    <div class=\"offerCard\">\n        <div class=\"bidOffer\">\n            <div class=\"instructionsText\">\n        <div class =\"wrapTextBox\">\n            <p><strong>Practice Phase</strong></p>\n            <p>Let's practice the task before starting the real experiment.</p>\n            <p>You will complete 4 practice trials. These won't count toward your final payment.</p>\n            <p>Press the spacebar to begin practice.</p>\n        </div>\n        </div>\n        </div>\n    </div>","response":" ","trial_type":"html-keyboard-response","trial_index":12,"time_elapsed":797363,"internal_node_id":"0.0-7.0","participant_id":"67cdc3c7ea7918dcd6f2ab2d","PID":null},{"rt":3890,"stimulus":"<div class=\"gameHeader\">\n        </div>\n    <div class=\"offerCard\" style=\"height: auto; min-height: 90vh; overflow-y: auto; display: flex; justify-content: center;\">\n        <div class=\"bidOffer\" style=\"overflow-y: auto; display: flex; flex-direction: column; justify-content: center;\">\n        <div class=\"offers\">\n        <div class=\"textPrompt\"><p style=\"font-family: 'Times New Roman', Times, serif; font-size: 18px;\">How much money do you want\n        <br>to give Partner?</p></div>\n            <div class =\"trustElements\">\n            <div class=\"player1Card\"><p class=\"player1Image\"><img src=\"src/images/gray_guy.png\" width=\"150\"></p>\n                <div class=\"player1Name\"><p style=\"font-family: 'Times New Roman', Times, serif; font-size: 18px;\">CHTH08</p></div>\n            </div>\n\n                <div class=\"investmentCard\">\n                    <div id=\"leftBlock\" class=\"leftBlock\">\n                        <p style=\"font-family: 'Times New Roman', Times, serif; font-size: 18px;\">$1</p>\n                        <p style=\"font-family: 'Times New Roman', Times, serif; font-size: 18px; margin-top: 5px; color: #666;\">Press \"F\" key</p>\n                    </div>\n                    <div id=\"rightBlock\" class=\"rightBlock\">\n                        <p style=\"font-family: 'Times New Roman', Times, serif; font-size: 18px;\">$10</p>\n                        <p style=\"font-family: 'Times New Roman', Times, serif; font-size: 18px; margin-top: 5px; color: #666;\">Press \"J\" key</p>\n                    </div>\n                </div>\n\n            <div class=\"player2Card\"><p class=\"player2Image\"><img src=src/images/blue_guy.png width=\"150\"></p>\n                <div class=\"player2Name\"><p>Partner</p></div>\n            </div>\n            </div>\n        </div>\n        </div>\n    </div>","response":"f","task":"practice_choice","trial_type":"html-keyboard-response","trial_index":13,"time_elapsed":801254,"internal_node_id":"0.0-8.0-0.0","participant_id":"67cdc3c7ea7918dcd6f2ab2d","choice":1,"player_num":0,"trial_num":1,"binned_trial_num":1,"reward":1.8,"prop_return":0.4525317141390922,"prop_return_noise":-0.000005087765746761339,"PID":null},{"rt":null,"stimulus":"<div class=\"gameHeader\">\n        </div>\n    <div class=\"offerCard\" style=\"height: auto; min-height: 90vh; overflow-y: auto; display: flex; justify-content: center;\">\n        <div class=\"bidOffer\" style=\"overflow-y: auto; display: flex; flex-direction: column; justify-content: center;\"><div class=\"outcomeText\"><p style=\"font-family: 'Times New Roman', Times, serif; font-size: 18px;\">You selected $1.00</p>\n\n        <p style=\"font-family: 'Times New Roman', Times, serif; font-size: 18px;\"><br>Your partner is deciding how much to return.</p></div></div>\n    </div>","response":null,"trial_type":"html-keyboard-response","trial_index":14,"time_elapsed":804750,"internal_node_id":"0.0-8.0-1.0","participant_id":"67cdc3c7ea7918dcd6f2ab2d","PID":null},{"rt":null,"stimulus":"<div class=\"gameHeader\">\n        </div>\n    <div class=\"offerCard\" style=\"height: auto; min-height: 90vh; overflow-y: auto; display: flex; justify-content: center;\">\n        <div class=\"bidOffer\" style=\"overflow-y: auto; display: flex; flex-direction: column; justify-content: center;\"><div style=\"display: flex; flex-direction: column; align-items: center; justify-content: center; width: 100%;\">\n            <div class=\"player2Card\" style=\"margin-bottom: 20px;\">\n                <p class=\"player2Image\"><img src=src/images/blue_guy.png width=\"150\"></p>\n                <div class=\"player2Name\"><p>Partner</p></div>\n            </div>\n\n            <div style=\"background-color: #f8f9fa; border-radius: 10px; padding: 15px; text-align: center; max-width: 400px;\">\n                <p style=\"font-family: 'Times New Roman', Times, serif; font-size: 18px; margin: 0;\">Partner received <strong>$4.00</strong> and returned <strong>$1.80</strong> to you.</p>\n            </div>\n        </div></div>\n    </div>","response":null,"trial_type":"html-keyboard-response","trial_index":15,"time_elapsed":808764,"internal_node_id":"0.0-8.0-2.0","participant_id":"67cdc3c7ea7918dcd6f2ab2d","PID":null},{"rt":null,"stimulus":"<div class=\"gameHeader\">\n        </div>\n    <div class=\"offerCard\" style=\"height: auto; min-height: 90vh; overflow-y: auto; display: flex; justify-content: center;\">\n        <div class=\"bidOffer\" style=\"overflow-y: auto; display: flex; flex-direction: column; justify-content: center;\"><div class=\"outcomeText\"><p style=\"font-family: 'Times New Roman', Times, serif; font-size: 18px;\">The next round will begin momentarily.</p>\n\n    <p style=\"font-family: 'Times New Roman', Times, serif; font-size: 18px;\">Please wait.</p></div></div>\n    </div>","response":null,"trial_type":"html-keyboard-response","trial_index":16,"time_elapsed":811579,"internal_node_id":"0.0-8.0-3.0-0.0","participant_id":"67cdc3c7ea7918dcd6f2ab2d","PID":null},{"rt":857,"stimulus":"<div class=\"gameHeader\">\n        </div>\n    <div class=\"offerCard\" style=\"height: auto; min-height: 90vh; overflow-y: auto; display: flex; justify-content: center;\">\n        <div class=\"bidOffer\" style=\"overflow-y: auto; display: flex; flex-direction: column; justify-content: center;\">\n        <div class=\"offers\">\n        <div class=\"textPrompt\"><p style=\"font-family: 'Times New Roman', Times, serif; font-size: 18px;\">How much money do you want\n        <br>to give Partner?</p></div>\n            <div class =\"trustElements\">\n            <div class=\"player1Card\"><p class=\"player1Image\"><img src=\"src/images/gray_guy.png\" width=\"150\"></p>\n                <div class=\"player1Name\"><p style=\"font-family: 'Times New Roman', Times, serif; font-size: 18px;\">CHTH08</p></div>\n            </div>\n\n                <div class=\"investmentCard\">\n                    <div id=\"leftBlock\" class=\"leftBlock\">\n                        <p style=\"font-family: 'Times New Roman', Times, serif; font-size: 18px;\">$1</p>\n                        <p style=\"font-family: 'Times New Roman', Times, serif; font-size: 18px; margin-top: 5px; color: #666;\">Press \"F\" key</p>\n                    </div>\n                    <div id=\"rightBlock\" class=\"rightBlock\">\n                        <p style=\"font-family: 'Times New Roman', Times, serif; font-size: 18px;\">$10</p>\n                        <p style=\"font-family: 'Times New Roman', Times, serif; font-size: 18px; margin-top: 5px; color: #666;\">Press \"J\" key</p>\n                    </div>\n                </div>\n\n            <div class=\"player2Card\"><p class=\"player2Image\"><img src=src/images/yellow_guy.png width=\"150\"></p>\n                <div class=\"player2Name\"><p>Partner</p></div>\n            </div>\n            </div>\n        </div>\n        </div>\n    </div>","response":"j","task":"practice_choice","trial_type":"html-keyboard-response","trial_index":17,"time_elapsed":812438,"internal_node_id":"0.0-8.0-0.1","participant_id":"67cdc3c7ea7918dcd6f2ab2d","choice":10,"player_num":1,"trial_num":2,"binned_trial_num":1,"reward":3.2,"prop_return":0.08954906671101692,"prop_return_noise":-0.009392158005958523,"PID":null},{"rt":null,"stimulus":"<div class=\"gameHeader\">\n        </div>\n    <div class=\"offerCard\" style=\"height: auto; min-height: 90vh; overflow-y: auto; display: flex; justify-content: center;\">\n        <div class=\"bidOffer\" style=\"overflow-y: auto; display: flex; flex-direction: column; justify-content: center;\"><div class=\"outcomeText\"><p style=\"font-family: 'Times New Roman', Times, serif; font-size: 18px;\">You selected $10.00</p>\n\n        <p style=\"font-family: 'Times New Roman', Times, serif; font-size: 18px;\"><br>Your partner is deciding how much to return.</p></div></div>\n    </div>","response":null,"trial_type":"html-keyboard-response","trial_index":18,"time_elapsed":815060,"internal_node_id":"0.0-8.0-1.1","participant_id":"67cdc3c7ea7918dcd6f2ab2d","PID":null},{"rt":null,"stimulus":"<div class=\"gameHeader\">\n        </div>\n    <div class=\"offerCard\" style=\"height: auto; min-height: 90vh; overflow-y: auto; display: flex; justify-content: center;\">\n        <div class=\"bidOffer\" style=\"overflow-y: auto; display: flex; flex-direction: column; justify-content: center;\"><div style=\"display: flex; flex-direction: column; align-items: center; justify-content: center; width: 100%;\">\n            <div class=\"player2Card\" style=\"margin-bottom: 20px;\">\n                <p class=\"player2Image\"><img src=src/images/yellow_guy.png width=\"150\"></p>\n                <div class=\"player2Name\"><p>Partner</p></div>\n            </div>\n\n            <div style=\"background-color: #f8f9fa; border-radius: 10px; padding: 15px; text-align: center; max-width: 400px;\">\n                <p style=\"font-family: 'Times New Roman', Times, serif; font-size: 18px; margin: 0;\">Partner received <strong>$40.00</strong> and returned <strong>$3.20</strong> to you.</p>\n            </div>\n        </div></div>\n    </div>","response":null,"trial_type":"html-keyboard-response","trial_index":19,"time_elapsed":819075,"internal_node_id":"0.0-8.0-2.1","participant_id":"67cdc3c7ea7918dcd6f2ab2d","PID":null},{"rt":null,"stimulus":"<div class=\"gameHeader\">\n        </div>\n    <div class=\"offerCard\" style=\"height: auto; min-height: 90vh; overflow-y: auto; display: flex; justify-content: center;\">\n        <div class=\"bidOffer\" style=\"overflow-y: auto; display: flex; flex-direction: column; justify-content: center;\"><div class=\"outcomeText\"><p style=\"font-family: 'Times New Roman', Times, serif; font-size: 18px;\">The next round will begin momentarily.</p>\n\n    <p style=\"font-family: 'Times New Roman', Times, serif; font-size: 18px;\">Please wait.</p></div></div>\n    </div>","response":null,"trial_type":"html-keyboard-response","trial_index":20,"time_elapsed":822561,"internal_node_id":"0.0-8.0-3.1-0.1","participant_id":"67cdc3c7ea7918dcd6f2ab2d","PID":null},{"rt":1303,"stimulus":"<div class=\"gameHeader\">\n        </div>\n    <div class=\"offerCard\" style=\"height: auto; min-height: 90vh; overflow-y: auto; display: flex; justify-content: center;\">\n        <div class=\"bidOffer\" style=\"overflow-y: auto; display: flex; flex-direction: column; justify-content: center;\">\n        <div class=\"offers\">\n        <div class=\"textPrompt\"><p style=\"font-family: 'Times New Roman', Times, serif; font-size: 18px;\">How much money do you want\n        <br>to give Partner?</p></div>\n            <div class =\"trustElements\">\n            <div class=\"player1Card\"><p class=\"player1Image\"><img src=\"src/images/gray_guy.png\" width=\"150\"></p>\n                <div class=\"player1Name\"><p style=\"font-family: 'Times New Roman', Times, serif; font-size: 18px;\">CHTH08</p></div>\n            </div>\n\n                <div class=\"investmentCard\">\n                    <div id=\"leftBlock\" class=\"leftBlock\">\n                        <p style=\"font-family: 'Times New Roman', Times, serif; font-size: 18px;\">$1</p>\n                        <p style=\"font-family: 'Times New Roman', Times, serif; font-size: 18px; margin-top: 5px; color: #666;\">Press \"F\" key</p>\n                    </div>\n                    <div id=\"rightBlock\" class=\"rightBlock\">\n                        <p style=\"font-family: 'Times New Roman', Times, serif; font-size: 18px;\">$10</p>\n                        <p style=\"font-family: 'Times New Roman', Times, serif; font-size: 18px; margin-top: 5px; color: #666;\">Press \"J\" key</p>\n                    </div>\n                </div>\n\n            <div class=\"player2Card\"><p class=\"player2Image\"><img src=src/images/green_guy.png width=\"150\"></p>\n                <div class=\"player2Name\"><p>Partner</p></div>\n            </div>\n            </div>\n        </div>\n        </div>\n    </div>","response":"f","task":"practice_choice","trial_type":"html-keyboard-response","trial_index":21,"time_elapsed":823865,"internal_node_id":"0.0-8.0-0.2","participant_id":"67cdc3c7ea7918dcd6f2ab2d","choice":1,"player_num":2,"trial_num":3,"binned_trial_num":1,"reward":1.6,"prop_return":0.42952665325779044,"prop_return_noise":-0.027996696861982237,"PID":null},{"rt":null,"stimulus":"<div class=\"gameHeader\">\n        </div>\n    <div class=\"offerCard\" style=\"height: auto; min-height: 90vh; overflow-y: auto; display: flex; justify-content: center;\">\n        <div class=\"bidOffer\" style=\"overflow-y: auto; display: flex; flex-direction: column; justify-content: center;\"><div class=\"outcomeText\"><p style=\"font-family: 'Times New Roman', Times, serif; font-size: 18px;\">You selected $1.00</p>\n\n        <p style=\"font-family: 'Times New Roman', Times, serif; font-size: 18px;\"><br>Your partner is deciding how much to return.</p></div></div>\n    </div>","response":null,"trial_type":"html-keyboard-response","trial_index":22,"time_elapsed":825951,"internal_node_id":"0.0-8.0-1.2","participant_id":"67cdc3c7ea7918dcd6f2ab2d","PID":null},{"rt":null,"stimulus":"<div class=\"gameHeader\">\n        </div>\n    <div class=\"offerCard\" style=\"height: auto; min-height: 90vh; overflow-y: auto; display: flex; justify-content: center;\">\n        <div class=\"bidOffer\" style=\"overflow-y: auto; display: flex; flex-direction: column; justify-content: center;\"><div style=\"display: flex; flex-direction: column; align-items: center; justify-content: center; width: 100%;\">\n            <div class=\"player2Card\" style=\"margin-bottom: 20px;\">\n                <p class=\"player2Image\"><img src=src/images/green_guy.png width=\"150\"></p>\n                <div class=\"player2Name\"><p>Partner</p></div>\n            </div>\n\n            <div style=\"background-color: #f8f9fa; border-radius: 10px; padding: 15px; text-align: center; max-width: 400px;\">\n                <p style=\"font-family: 'Times New Roman', Times, serif; font-size: 18px; margin: 0;\">Partner received <strong>$4.00</strong> and returned <strong>$1.60</strong> to you.</p>\n            </div>\n        </div></div>\n    </div>","response":null,"trial_type":"html-keyboard-response","trial_index":23,"time_elapsed":829968,"internal_node_id":"0.0-8.0-2.2","participant_id":"67cdc3c7ea7918dcd6f2ab2d","PID":null},{"rt":null,"stimulus":"<div class=\"gameHeader\">\n        </div>\n    <div class=\"offerCard\" style=\"height: auto; min-height: 90vh; overflow-y: auto; display: flex; justify-content: center;\">\n        <div class=\"bidOffer\" style=\"overflow-y: auto; display: flex; flex-direction: column; justify-content: center;\"><div class=\"outcomeText\"><p style=\"font-family: 'Times New Roman', Times, serif; font-size: 18px;\">The next round will begin momentarily.</p>\n\n    <p style=\"font-family: 'Times New Roman', Times, serif; font-size: 18px;\">Please wait.</p></div></div>\n    </div>","response":null,"trial_type":"html-keyboard-response","trial_index":24,"time_elapsed":833354,"internal_node_id":"0.0-8.0-3.2-0.2","participant_id":"67cdc3c7ea7918dcd6f2ab2d","PID":null},{"rt":910,"stimulus":"<div class=\"gameHeader\">\n        </div>\n    <div class=\"offerCard\" style=\"height: auto; min-height: 90vh; overflow-y: auto; display: flex; justify-content: center;\">\n        <div class=\"bidOffer\" style=\"overflow-y: auto; display: flex; flex-direction: column; justify-content: center;\">\n        <div class=\"offers\">\n        <div class=\"textPrompt\"><p style=\"font-family: 'Times New Roman', Times, serif; font-size: 18px;\">How much money do you want\n        <br>to give Partner?</p></div>\n            <div class =\"trustElements\">\n            <div class=\"player1Card\"><p class=\"player1Image\"><img src=\"src/images/gray_guy.png\" width=\"150\"></p>\n                <div class=\"player1Name\"><p style=\"font-family: 'Times New Roman', Times, serif; font-size: 18px;\">CHTH08</p></div>\n            </div>\n\n                <div class=\"investmentCard\">\n                    <div id=\"leftBlock\" class=\"leftBlock\">\n                        <p style=\"font-family: 'Times New Roman', Times, serif; font-size: 18px;\">$1</p>\n                        <p style=\"font-family: 'Times New Roman', Times, serif; font-size: 18px; margin-top: 5px; color: #666;\">Press \"F\" key</p>\n                    </div>\n                    <div id=\"rightBlock\" class=\"rightBlock\">\n                        <p style=\"font-family: 'Times New Roman', Times, serif; font-size: 18px;\">$10</p>\n                        <p style=\"font-family: 'Times New Roman', Times, serif; font-size: 18px; margin-top: 5px; color: #666;\">Press \"J\" key</p>\n                    </div>\n                </div>\n\n            <div class=\"player2Card\"><p class=\"player2Image\"><img src=src/images/red_guy.png width=\"150\"></p>\n                <div class=\"player2Name\"><p>Partner</p></div>\n            </div>\n            </div>\n        </div>\n        </div>\n    </div>","response":"f","task":"practice_choice","trial_type":"html-keyboard-response","trial_index":25,"time_elapsed":834266,"internal_node_id":"0.0-8.0-0.3","participant_id":"67cdc3c7ea7918dcd6f2ab2d","choice":1,"player_num":3,"trial_num":4,"binned_trial_num":2,"reward":1.6,"prop_return":0.4304545365314463,"prop_return_noise":-0.020725017411231325,"PID":null},{"rt":null,"stimulus":"<div class=\"gameHeader\">\n        </div>\n    <div class=\"offerCard\" style=\"height: auto; min-height: 90vh; overflow-y: auto; display: flex; justify-content: center;\">\n        <div class=\"bidOffer\" style=\"overflow-y: auto; display: flex; flex-direction: column; justify-content: center;\"><div class=\"outcomeText\"><p style=\"font-family: 'Times New Roman', Times, serif; font-size: 18px;\">You selected $1.00</p>\n\n        <p style=\"font-family: 'Times New Roman', Times, serif; font-size: 18px;\"><br>Your partner is deciding how much to return.</p></div></div>\n    </div>","response":null,"trial_type":"html-keyboard-response","trial_index":26,"time_elapsed":836487,"internal_node_id":"0.0-8.0-1.3","participant_id":"67cdc3c7ea7918dcd6f2ab2d","PID":null},{"rt":null,"stimulus":"<div class=\"gameHeader\">\n        </div>\n    <div class=\"offerCard\" style=\"height: auto; min-height: 90vh; overflow-y: auto; display: flex; justify-content: center;\">\n        <div class=\"bidOffer\" style=\"overflow-y: auto; display: flex; flex-direction: column; justify-content: center;\"><div style=\"display: flex; flex-direction: column; align-items: center; justify-content: center; width: 100%;\">\n            <div class=\"player2Card\" style=\"margin-bottom: 20px;\">\n                <p class=\"player2Image\"><img src=src/images/red_guy.png width=\"150\"></p>\n                <div class=\"player2Name\"><p>Partner</p></div>\n            </div>\n\n            <div style=\"background-color: #f8f9fa; border-radius: 10px; padding: 15px; text-align: center; max-width: 400px;\">\n                <p style=\"font-family: 'Times New Roman', Times, serif; font-size: 18px; margin: 0;\">Partner received <strong>$4.00</strong> and returned <strong>$1.60</strong> to you.</p>\n            </div>\n        </div></div>\n    </div>","response":null,"trial_type":"html-keyboard-response","trial_index":27,"time_elapsed":840500,"internal_node_id":"0.0-8.0-2.3","participant_id":"67cdc3c7ea7918dcd6f2ab2d","PID":null},{"rt":20596,"stimulus":"<div class=\"gameHeader\">\n        </div>\n    <div class=\"offerCard\">\n        <div class=\"bidOffer\">\n            <div class=\"instructionsText\">\n        <div class =\"wrapTextBox\">\n            <p><strong>Practice Complete!</strong></p>\n            <p>You have finished the practice phase.</p>\n            <p>The real experiment will now begin. Your decisions will now count toward your final payment.</p>\n            <p>During the practice phase, four participants (<strong>KeJo10</strong>, <strong>BaSa02</strong>, <strong>GePl10</strong>, <strong>ClMa03</strong>) have been randomly matched as your partners for this experiment.</p>\n            <p>Press the spacebar to start the experiment.</p>\n        </div>\n        </div>\n        </div>\n    </div>","response":" ","trial_type":"html-keyboard-response","trial_index":28,"time_elapsed":861098,"internal_node_id":"0.0-9.0","participant_id":"67cdc3c7ea7918dcd6f2ab2d","PID":null},{"rt":null,"stimulus":"<div class=\"gameHeader\">\n        </div>\n    <div class=\"offerCard\">\n        <div class=\"bidOffer\">\n            <div class=\"instructionsText\">\n        <div class =\"wrapTextBox\">\n            <p style=\"font-family: 'Times New Roman', Times, serif; font-size: 18px;\"><strong>Preparing main experiment...</strong></p>\n        </div>\n        </div>\n        </div>\n    </div>","response":null,"trial_type":"html-keyboard-response","trial_index":29,"time_elapsed":862608,"internal_node_id":"0.0-10.0","participant_id":"67cdc3c7ea7918dcd6f2ab2d","PID":null},{"rt":656,"stimulus":"<div class=\"gameHeader\">\n        </div>\n    <div class=\"offerCard\" style=\"height: auto; min-height: 90vh; overflow-y: auto; display: flex; justify-content: center;\">\n        <div class=\"bidOffer\" style=\"overflow-y: auto; display: flex; flex-direction: column; justify-content: center;\">\n        <div class=\"offers\">\n        <div class=\"textPrompt\"><p style=\"font-family: 'Times New Roman', Times, serif; font-size: 18px;\">How much money do you want\n        <br>to give KeJo10?</p></div>\n            <div class =\"trustElements\">\n            <div class=\"player1Card\"><p class=\"player1Image\"><img src=\"src/images/gray_guy.png\" width=\"150\"></p>\n                <div class=\"player1Name\"><p style=\"font-family: 'Times New Roman', Times, serif; font-size: 18px;\">CHTH08</p></div>\n            </div>\n\n                <div class=\"investmentCard\">\n                    <div id=\"leftBlock\" class=\"leftBlock\">\n                        <p style=\"font-family: 'Times New Roman', Times, serif; font-size: 18px;\">$1</p>\n                        <p style=\"font-family: 'Times New Roman', Times, serif; font-size: 18px; margin-top: 5px; color: #666;\">Press \"F\" key</p>\n                    </div>\n                    <div id=\"rightBlock\" class=\"rightBlock\">\n                        <p style=\"font-family: 'Times New Roman', Times, serif; font-size: 18px;\">$10</p>\n                        <p style=\"font-family: 'Times New Roman', Times, serif; font-size: 18px; margin-top: 5px; color: #666;\">Press \"J\" key</p>\n                    </div>\n                </div>\n\n            <div class=\"player2Card\"><p class=\"player2Image\"><img src=src/images/blue_guy.png width=\"150\"></p>\n                <div class=\"player2Name\"><p>KeJo10</p></div>\n            </div>\n            </div>\n        </div>\n        </div>\n    </div>","response":"f","task":"make_choice","trial_type":"html-keyboard-response","trial_index":30,"time_elapsed":863265,"internal_node_id":"0.0-11.0-0.0-0.0-0.0","participant_id":"67cdc3c7ea7918dcd6f2ab2d","choice":1,"player_num":0,"trial_num":1,"binned_trial_num":1,"reward":1.9,"prop_return":0.4935388582711144,"prop_return_noise":-0.006245799144619772,"PID":null},{"rt":null,"stimulus":"<div class=\"gameHeader\">\n        </div>\n    <div class=\"offerCard\" style=\"height: auto; min-height: 90vh; overflow-y: auto; display: flex; justify-content: center;\">\n        <div class=\"bidOffer\" style=\"overflow-y: auto; display: flex; flex-direction: column; justify-content: center;\"><div class=\"outcomeText\"><p style=\"font-family: 'Times New Roman', Times, serif; font-size: 18px;\">You selected $1.00</p>\n\n        <p style=\"font-family: 'Times New Roman', Times, serif; font-size: 18px;\"><br>Your partner is deciding how much to return.</p></div></div>\n    </div>","response":null,"trial_type":"html-keyboard-response","trial_index":31,"time_elapsed":865391,"internal_node_id":"0.0-11.0-0.0-0.0-1.0","participant_id":"67cdc3c7ea7918dcd6f2ab2d","PID":null},{"rt":null,"stimulus":"<div class=\"gameHeader\">\n        </div>\n    <div class=\"offerCard\" style=\"height: auto; min-height: 90vh; overflow-y: auto; display: flex; justify-content: center;\">\n        <div class=\"bidOffer\" style=\"overflow-y: auto; display: flex; flex-direction: column; justify-content: center;\"><div style=\"display: flex; flex-direction: column; align-items: center; justify-content: center; width: 100%;\">\n            <div class=\"player2Card\" style=\"margin-bottom: 20px;\">\n                <p class=\"player2Image\"><img src=src/images/blue_guy.png width=\"150\"></p>\n                <div class=\"player2Name\"><p>KeJo10</p></div>\n            </div>\n\n            <div style=\"background-color: #f8f9fa; border-radius: 10px; padding: 15px; text-align: center; max-width: 400px;\">\n                <p style=\"font-family: 'Times New Roman', Times, serif; font-size: 18px; margin: 0;\">KeJo10 received <strong>$4.00</strong> and returned <strong>$1.90</strong> to you.</p>\n            </div>\n        </div></div>\n    </div>","response":null,"trial_type":"html-keyboard-response","trial_index":32,"time_elapsed":869393,"internal_node_id":"0.0-11.0-0.0-0.0-2.0","participant_id":"67cdc3c7ea7918dcd6f2ab2d","PID":null},{"rt":null,"stimulus":"<div class=\"gameHeader\">\n        </div>\n    <div class=\"offerCard\" style=\"height: auto; min-height: 90vh; overflow-y: auto; display: flex; justify-content: center;\">\n        <div class=\"bidOffer\" style=\"overflow-y: auto; display: flex; flex-direction: column; justify-content: center;\"><div class=\"outcomeText\"><p style=\"font-family: 'Times New Roman', Times, serif; font-size: 18px;\">The next round will begin momentarily.</p>\n\n    <p style=\"font-family: 'Times New Roman', Times, serif; font-size: 18px;\">Please wait.</p></div></div>\n    </div>","response":null,"trial_type":"html-keyboard-response","trial_index":33,"time_elapsed":872124,"internal_node_id":"0.0-11.0-0.0-0.0-3.0-0.0","participant_id":"67cdc3c7ea7918dcd6f2ab2d","PID":null},{"rt":449,"stimulus":"<div class=\"gameHeader\">\n        </div>\n    <div class=\"offerCard\" style=\"height: auto; min-height: 90vh; overflow-y: auto; display: flex; justify-content: center;\">\n        <div class=\"bidOffer\" style=\"overflow-y: auto; display: flex; flex-direction: column; justify-content: center;\">\n        <div class=\"offers\">\n        <div class=\"textPrompt\"><p style=\"font-family: 'Times New Roman', Times, serif; font-size: 18px;\">How much money do you want\n        <br>to give BaSa02?</p></div>\n            <div class =\"trustElements\">\n            <div class=\"player1Card\"><p class=\"player1Image\"><img src=\"src/images/gray_guy.png\" width=\"150\"></p>\n                <div class=\"player1Name\"><p style=\"font-family: 'Times New Roman', Times, serif; font-size: 18px;\">CHTH08</p></div>\n            </div>\n\n                <div class=\"investmentCard\">\n                    <div id=\"leftBlock\" class=\"leftBlock\">\n                        <p style=\"font-family: 'Times New Roman', Times, serif; font-size: 18px;\">$1</p>\n                        <p style=\"font-family: 'Times New Roman', Times, serif; font-size: 18px; margin-top: 5px; color: #666;\">Press \"F\" key</p>\n                    </div>\n                    <div id=\"rightBlock\" class=\"rightBlock\">\n                        <p style=\"font-family: 'Times New Roman', Times, serif; font-size: 18px;\">$10</p>\n                        <p style=\"font-family: 'Times New Roman', Times, serif; font-size: 18px; margin-top: 5px; color: #666;\">Press \"J\" key</p>\n                    </div>\n                </div>\n\n            <div class=\"player2Card\"><p class=\"player2Image\"><img src=src/images/yellow_guy.png width=\"150\"></p>\n                <div class=\"player2Name\"><p>BaSa02</p></div>\n            </div>\n            </div>\n        </div>\n        </div>\n    </div>","response":"j","task":"make_choice","trial_type":"html-keyboard-response","trial_index":34,"time_elapsed":872574,"internal_node_id":"0.0-11.0-0.0-1.0-0.0","participant_id":"67cdc3c7ea7918dcd6f2ab2d","choice":10,"player_num":1,"trial_num":2,"binned_trial_num":1,"reward":19.8,"prop_return":0.4828702643090991,"prop_return_noise":0.01331905059370273,"PID":null},{"rt":null,"stimulus":"<div class=\"gameHeader\">\n        </div>\n    <div class=\"offerCard\" style=\"height: auto; min-height: 90vh; overflow-y: auto; display: flex; justify-content: center;\">\n        <div class=\"bidOffer\" style=\"overflow-y: auto; display: flex; flex-direction: column; justify-content: center;\"><div class=\"outcomeText\"><p style=\"font-family: 'Times New Roman', Times, serif; font-size: 18px;\">You selected $10.00</p>\n\n        <p style=\"font-family: 'Times New Roman', Times, serif; font-size: 18px;\"><br>Your partner is deciding how much to return.</p></div></div>\n    </div>","response":null,"trial_type":"html-keyboard-response","trial_index":35,"time_elapsed":876139,"internal_node_id":"0.0-11.0-0.0-1.0-1.0","participant_id":"67cdc3c7ea7918dcd6f2ab2d","PID":null},{"rt":null,"stimulus":"<div class=\"gameHeader\">\n        </div>\n    <div class=\"offerCard\" style=\"height: auto; min-height: 90vh; overflow-y: auto; display: flex; justify-content: center;\">\n        <div class=\"bidOffer\" style=\"overflow-y: auto; display: flex; flex-direction: column; justify-content: center;\"><div style=\"display: flex; flex-direction: column; align-items: center; justify-content: center; width: 100%;\">\n            <div class=\"player2Card\" style=\"margin-bottom: 20px;\">\n                <p class=\"player2Image\"><img src=src/images/yellow_guy.png width=\"150\"></p>\n                <div class=\"player2Name\"><p>BaSa02</p></div>\n            </div>\n\n            <div style=\"background-color: #f8f9fa; border-radius: 10px; padding: 15px; text-align: center; max-width: 400px;\">\n                <p style=\"font-family: 'Times New Roman', Times, serif; font-size: 18px; margin: 0;\">BaSa02 received <strong>$40.00</strong> and returned <strong>$19.80</strong> to you.</p>\n            </div>\n        </div></div>\n    </div>","response":null,"trial_type":"html-keyboard-response","trial_index":36,"time_elapsed":880170,"internal_node_id":"0.0-11.0-0.0-1.0-2.0","participant_id":"67cdc3c7ea7918dcd6f2ab2d","PID":null},{"rt":null,"stimulus":"<div class=\"gameHeader\">\n        </div>\n    <div class=\"offerCard\" style=\"height: auto; min-height: 90vh; overflow-y: auto; display: flex; justify-content: center;\">\n        <div class=\"bidOffer\" style=\"overflow-y: auto; display: flex; flex-direction: column; justify-content: center;\"><div class=\"outcomeText\"><p style=\"font-family: 'Times New Roman', Times, serif; font-size: 18px;\">The next round will begin momentarily.</p>\n\n    <p style=\"font-family: 'Times New Roman', Times, serif; font-size: 18px;\">Please wait.</p></div></div>\n    </div>","response":null,"trial_type":"html-keyboard-response","trial_index":37,"time_elapsed":883365,"internal_node_id":"0.0-11.0-0.0-1.0-3.0-0.0","participant_id":"67cdc3c7ea7918dcd6f2ab2d","PID":null},{"rt":705,"stimulus":"<div class=\"gameHeader\">\n        </div>\n    <div class=\"offerCard\" style=\"height: auto; min-height: 90vh; overflow-y: auto; display: flex; justify-content: center;\">\n        <div class=\"bidOffer\" style=\"overflow-y: auto; display: flex; flex-direction: column; justify-content: center;\">\n        <div class=\"offers\">\n        <div class=\"textPrompt\"><p style=\"font-family: 'Times New Roman', Times, serif; font-size: 18px;\">How much money do you want\n        <br>to give GePl10?</p></div>\n            <div class =\"trustElements\">\n            <div class=\"player1Card\"><p class=\"player1Image\"><img src=\"src/images/gray_guy.png\" width=\"150\"></p>\n                <div class=\"player1Name\"><p style=\"font-family: 'Times New Roman', Times, serif; font-size: 18px;\">CHTH08</p></div>\n            </div>\n\n                <div class=\"investmentCard\">\n                    <div id=\"leftBlock\" class=\"leftBlock\">\n                        <p style=\"font-family: 'Times New Roman', Times, serif; font-size: 18px;\">$1</p>\n                        <p style=\"font-family: 'Times New Roman', Times, serif; font-size: 18px; margin-top: 5px; color: #666;\">Press \"F\" key</p>\n                    </div>\n                    <div id=\"rightBlock\" class=\"rightBlock\">\n                        <p style=\"font-family: 'Times New Roman', Times, serif; font-size: 18px;\">$10</p>\n                        <p style=\"font-family: 'Times New Roman', Times, serif; font-size: 18px; margin-top: 5px; color: #666;\">Press \"J\" key</p>\n                    </div>\n                </div>\n\n            <div class=\"player2Card\"><p class=\"player2Image\"><img src=src/images/green_guy.png width=\"150\"></p>\n                <div class=\"player2Name\"><p>GePl10</p></div>\n            </div>\n            </div>\n        </div>\n        </div>\n    </div>","response":"f","task":"make_choice","trial_type":"html-keyboard-response","trial_index":38,"time_elapsed":884072,"internal_node_id":"0.0-11.0-0.0-2.0-0.0","participant_id":"67cdc3c7ea7918dcd6f2ab2d","choice":1,"player_num":2,"trial_num":3,"binned_trial_num":1,"reward":1,"prop_return":0.2547605777369546,"prop_return_noise":0.005869736526339279,"PID":null},{"rt":null,"stimulus":"<div class=\"gameHeader\">\n        </div>\n    <div class=\"offerCard\" style=\"height: auto; min-height: 90vh; overflow-y: auto; display: flex; justify-content: center;\">\n        <div class=\"bidOffer\" style=\"overflow-y: auto; display: flex; flex-direction: column; justify-content: center;\"><div class=\"outcomeText\"><p style=\"font-family: 'Times New Roman', Times, serif; font-size: 18px;\">You selected $1.00</p>\n\n        <p style=\"font-family: 'Times New Roman', Times, serif; font-size: 18px;\"><br>Your partner is deciding how much to return.</p></div></div>\n    </div>","response":null,"trial_type":"html-keyboard-response","trial_index":39,"time_elapsed":886373,"internal_node_id":"0.0-11.0-0.0-2.0-1.0","participant_id":"67cdc3c7ea7918dcd6f2ab2d","PID":null},{"rt":null,"stimulus":"<div class=\"gameHeader\">\n        </div>\n    <div class=\"offerCard\" style=\"height: auto; min-height: 90vh; overflow-y: auto; display: flex; justify-content: center;\">\n        <div class=\"bidOffer\" style=\"overflow-y: auto; display: flex; flex-direction: column; justify-content: center;\"><div style=\"display: flex; flex-direction: column; align-items: center; justify-content: center; width: 100%;\">\n            <div class=\"player2Card\" style=\"margin-bottom: 20px;\">\n                <p class=\"player2Image\"><img src=src/images/green_guy.png width=\"150\"></p>\n                <div class=\"player2Name\"><p>GePl10</p></div>\n            </div>\n\n            <div style=\"background-color: #f8f9fa; border-radius: 10px; padding: 15px; text-align: center; max-width: 400px;\">\n                <p style=\"font-family: 'Times New Roman', Times, serif; font-size: 18px; margin: 0;\">GePl10 received <strong>$4.00</strong> and returned <strong>$1.00</strong> to you.</p>\n            </div>\n        </div></div>\n    </div>","response":null,"trial_type":"html-keyboard-response","trial_index":40,"time_elapsed":890390,"internal_node_id":"0.0-11.0-0.0-2.0-2.0","participant_id":"67cdc3c7ea7918dcd6f2ab2d","PID":null},{"rt":null,"stimulus":"<div class=\"gameHeader\">\n        </div>\n    <div class=\"offerCard\" style=\"height: auto; min-height: 90vh; overflow-y: auto; display: flex; justify-content: center;\">\n        <div class=\"bidOffer\" style=\"overflow-y: auto; display: flex; flex-direction: column; justify-content: center;\"><div class=\"outcomeText\"><p style=\"font-family: 'Times New Roman', Times, serif; font-size: 18px;\">The next round will begin momentarily.</p>\n\n    <p style=\"font-family: 'Times New Roman', Times, serif; font-size: 18px;\">Please wait.</p></div></div>\n    </div>","response":null,"trial_type":"html-keyboard-response","trial_index":41,"time_elapsed":892793,"internal_node_id":"0.0-11.0-0.0-2.0-3.0-0.0","participant_id":"67cdc3c7ea7918dcd6f2ab2d","PID":null},{"rt":417,"stimulus":"<div class=\"gameHeader\">\n        </div>\n    <div class=\"offerCard\" style=\"height: auto; min-height: 90vh; overflow-y: auto; display: flex; justify-content: center;\">\n        <div class=\"bidOffer\" style=\"overflow-y: auto; display: flex; flex-direction: column; justify-content: center;\">\n        <div class=\"offers\">\n        <div class=\"textPrompt\"><p style=\"font-family: 'Times New Roman', Times, serif; font-size: 18px;\">How much money do you want\n        <br>to give ClMa03?</p></div>\n            <div class =\"trustElements\">\n            <div class=\"player1Card\"><p class=\"player1Image\"><img src=\"src/images/gray_guy.png\" width=\"150\"></p>\n                <div class=\"player1Name\"><p style=\"font-family: 'Times New Roman', Times, serif; font-size: 18px;\">CHTH08</p></div>\n            </div>\n\n                <div class=\"investmentCard\">\n                    <div id=\"leftBlock\" class=\"leftBlock\">\n                        <p style=\"font-family: 'Times New Roman', Times, serif; font-size: 18px;\">$1</p>\n                        <p style=\"font-family: 'Times New Roman', Times, serif; font-size: 18px; margin-top: 5px; color: #666;\">Press \"F\" key</p>\n                    </div>\n                    <div id=\"rightBlock\" class=\"rightBlock\">\n                        <p style=\"font-family: 'Times New Roman', Times, serif; font-size: 18px;\">$10</p>\n                        <p style=\"font-family: 'Times New Roman', Times, serif; font-size: 18px; margin-top: 5px; color: #666;\">Press \"J\" key</p>\n                    </div>\n                </div>\n\n            <div class=\"player2Card\"><p class=\"player2Image\"><img src=src/images/red_guy.png width=\"150\"></p>\n                <div class=\"player2Name\"><p>ClMa03</p></div>\n            </div>\n            </div>\n        </div>\n        </div>\n    </div>","response":"j","task":"make_choice","trial_type":"html-keyboard-response","trial_index":42,"time_elapsed":893211,"internal_node_id":"0.0-11.0-0.0-3.0-0.0","participant_id":"67cdc3c7ea7918dcd6f2ab2d","choice":10,"player_num":3,"trial_num":4,"binned_trial_num":2,"reward":10,"prop_return":0.2594561523439392,"prop_return_noise":-0.009356690063988952,"PID":null},{"rt":null,"stimulus":"<div class=\"gameHeader\">\n        </div>\n    <div class=\"offerCard\" style=\"height: auto; min-height: 90vh; overflow-y: auto; display: flex; justify-content: center;\">\n        <div class=\"bidOffer\" style=\"overflow-y: auto; display: flex; flex-direction: column; justify-content: center;\"><div class=\"outcomeText\"><p style=\"font-family: 'Times New Roman', Times, serif; font-size: 18px;\">You selected $10.00</p>\n\n        <p style=\"font-family: 'Times New Roman', Times, serif; font-size: 18px;\"><br>Your partner is deciding how much to return.</p></div></div>\n    </div>","response":null,"trial_type":"html-keyboard-response","trial_index":43,"time_elapsed":896560,"internal_node_id":"0.0-11.0-0.0-3.0-1.0","participant_id":"67cdc3c7ea7918dcd6f2ab2d","PID":null},{"rt":null,"stimulus":"<div class=\"gameHeader\">\n        </div>\n    <div class=\"offerCard\" style=\"height: auto; min-height: 90vh; overflow-y: auto; display: flex; justify-content: center;\">\n        <div class=\"bidOffer\" style=\"overflow-y: auto; display: flex; flex-direction: column; justify-content: center;\"><div style=\"display: flex; flex-direction: column; align-items: center; justify-content: center; width: 100%;\">\n            <div class=\"player2Card\" style=\"margin-bottom: 20px;\">\n                <p class=\"player2Image\"><img src=src/images/red_guy.png width=\"150\"></p>\n                <div class=\"player2Name\"><p>ClMa03</p></div>\n            </div>\n\n            <div style=\"background-color: #f8f9fa; border-radius: 10px; padding: 15px; text-align: center; max-width: 400px;\">\n                <p style=\"font-family: 'Times New Roman', Times, serif; font-size: 18px; margin: 0;\">ClMa03 received <strong>$40.00</strong> and returned <strong>$10.00</strong> to you.</p>\n            </div>\n        </div></div>\n    </div>","response":null,"trial_type":"html-keyboard-response","trial_index":44,"time_elapsed":900562,"internal_node_id":"0.0-11.0-0.0-3.0-2.0","participant_id":"67cdc3c7ea7918dcd6f2ab2d","PID":null},{"rt":null,"stimulus":"<div class=\"gameHeader\">\n        </div>\n    <div class=\"offerCard\" style=\"height: auto; min-height: 90vh; overflow-y: auto; display: flex; justify-content: center;\">\n        <div class=\"bidOffer\" style=\"overflow-y: auto; display: flex; flex-direction: column; justify-content: center;\"><div class=\"outcomeText\"><p style=\"font-family: 'Times New Roman', Times, serif; font-size: 18px;\">The next round will begin momentarily.</p>\n\n    <p style=\"font-family: 'Times New Roman', Times, serif; font-size: 18px;\">Please wait.</p></div></div>\n    </div>","response":null,"trial_type":"html-keyboard-response","trial_index":45,"time_elapsed":904563,"internal_node_id":"0.0-11.0-0.0-3.0-3.0-0.0","participant_id":"67cdc3c7ea7918dcd6f2ab2d","PID":null},{"rt":596,"stimulus":"<div class=\"gameHeader\">\n        </div>\n    <div class=\"offerCard\" style=\"height: auto; min-height: 90vh; overflow-y: auto; display: flex; justify-content: center;\">\n        <div class=\"bidOffer\" style=\"overflow-y: auto; display: flex; flex-direction: column; justify-content: center;\">\n        <div class=\"offers\">\n        <div class=\"textPrompt\"><p style=\"font-family: 'Times New Roman', Times, serif; font-size: 18px;\">How much money do you want\n        <br>to give GePl10?</p></div>\n            <div class =\"trustElements\">\n            <div class=\"player1Card\"><p class=\"player1Image\"><img src=\"src/images/gray_guy.png\" width=\"150\"></p>\n                <div class=\"player1Name\"><p style=\"font-family: 'Times New Roman', Times, serif; font-size: 18px;\">CHTH08</p></div>\n            </div>\n\n                <div class=\"investmentCard\">\n                    <div id=\"leftBlock\" class=\"leftBlock\">\n                        <p style=\"font-family: 'Times New Roman', Times, serif; font-size: 18px;\">$1</p>\n                        <p style=\"font-family: 'Times New Roman', Times, serif; font-size: 18px; margin-top: 5px; color: #666;\">Press \"F\" key</p>\n                    </div>\n                    <div id=\"rightBlock\" class=\"rightBlock\">\n                        <p style=\"font-family: 'Times New Roman', Times, serif; font-size: 18px;\">$10</p>\n                        <p style=\"font-family: 'Times New Roman', Times, serif; font-size: 18px; margin-top: 5px; color: #666;\">Press \"J\" key</p>\n                    </div>\n                </div>\n\n            <div class=\"player2Card\"><p class=\"player2Image\"><img src=src/images/green_guy.png width=\"150\"></p>\n                <div class=\"player2Name\"><p>GePl10</p></div>\n            </div>\n            </div>\n        </div>\n        </div>\n    </div>","response":"j","task":"make_choice","trial_type":"html-keyboard-response","trial_index":46,"time_elapsed":905160,"internal_node_id":"0.0-11.0-0.0-4.0-0.0","participant_id":"67cdc3c7ea7918dcd6f2ab2d","choice":10,"player_num":2,"trial_num":5,"binned_trial_num":2,"reward":10.2,"prop_return":0.24467925225108478,"prop_return_noise":0.009997710946300446,"PID":null},{"rt":null,"stimulus":"<div class=\"gameHeader\">\n        </div>\n    <div class=\"offerCard\" style=\"height: auto; min-height: 90vh; overflow-y: auto; display: flex; justify-content: center;\">\n        <div class=\"bidOffer\" style=\"overflow-y: auto; display: flex; flex-direction: column; justify-content: center;\"><div class=\"outcomeText\"><p style=\"font-family: 'Times New Roman', Times, serif; font-size: 18px;\">You selected $10.00</p>\n\n        <p style=\"font-family: 'Times New Roman', Times, serif; font-size: 18px;\"><br>Your partner is deciding how much to return.</p></div></div>\n    </div>","response":null,"trial_type":"html-keyboard-response","trial_index":47,"time_elapsed":908498,"internal_node_id":"0.0-11.0-0.0-4.0-1.0","participant_id":"67cdc3c7ea7918dcd6f2ab2d","PID":null},{"rt":null,"stimulus":"<div class=\"gameHeader\">\n        </div>\n    <div class=\"offerCard\" style=\"height: auto; min-height: 90vh; overflow-y: auto; display: flex; justify-content: center;\">\n        <div class=\"bidOffer\" style=\"overflow-y: auto; display: flex; flex-direction: column; justify-content: center;\"><div style=\"display: flex; flex-direction: column; align-items: center; justify-content: center; width: 100%;\">\n            <div class=\"player2Card\" style=\"margin-bottom: 20px;\">\n                <p class=\"player2Image\"><img src=src/images/green_guy.png width=\"150\"></p>\n                <div class=\"player2Name\"><p>GePl10</p></div>\n            </div>\n\n            <div style=\"background-color: #f8f9fa; border-radius: 10px; padding: 15px; text-align: center; max-width: 400px;\">\n                <p style=\"font-family: 'Times New Roman', Times, serif; font-size: 18px; margin: 0;\">GePl10 received <strong>$40.00</strong> and returned <strong>$10.20</strong> to you.</p>\n            </div>\n        </div></div>\n    </div>","response":null,"trial_type":"html-keyboard-response","trial_index":48,"time_elapsed":912514,"internal_node_id":"0.0-11.0-0.0-4.0-2.0","participant_id":"67cdc3c7ea7918dcd6f2ab2d","PID":null},{"rt":null,"stimulus":"<div class=\"gameHeader\">\n        </div>\n    <div class=\"offerCard\" style=\"height: auto; min-height: 90vh; overflow-y: auto; display: flex; justify-content: center;\">\n        <div class=\"bidOffer\" style=\"overflow-y: auto; display: flex; flex-direction: column; justify-content: center;\"><div class=\"outcomeText\"><p style=\"font-family: 'Times New Roman', Times, serif; font-size: 18px;\">The next round will begin momentarily.</p>\n\n    <p style=\"font-family: 'Times New Roman', Times, serif; font-size: 18px;\">Please wait.</p></div></div>\n    </div>","response":null,"trial_type":"html-keyboard-response","trial_index":49,"time_elapsed":916247,"internal_node_id":"0.0-11.0-0.0-4.0-3.0-0.0","participant_id":"67cdc3c7ea7918dcd6f2ab2d","PID":null},{"rt":619,"stimulus":"<div class=\"gameHeader\">\n        </div>\n    <div class=\"offerCard\" style=\"height: auto; min-height: 90vh; overflow-y: auto; display: flex; justify-content: center;\">\n        <div class=\"bidOffer\" style=\"overflow-y: auto; display: flex; flex-direction: column; justify-content: center;\">\n        <div class=\"offers\">\n        <div class=\"textPrompt\"><p style=\"font-family: 'Times New Roman', Times, serif; font-size: 18px;\">How much money do you want\n        <br>to give KeJo10?</p></div>\n            <div class =\"trustElements\">\n            <div class=\"player1Card\"><p class=\"player1Image\"><img src=\"src/images/gray_guy.png\" width=\"150\"></p>\n                <div class=\"player1Name\"><p style=\"font-family: 'Times New Roman', Times, serif; font-size: 18px;\">CHTH08</p></div>\n            </div>\n\n                <div class=\"investmentCard\">\n                    <div id=\"leftBlock\" class=\"leftBlock\">\n                        <p style=\"font-family: 'Times New Roman', Times, serif; font-size: 18px;\">$1</p>\n                        <p style=\"font-family: 'Times New Roman', Times, serif; font-size: 18px; margin-top: 5px; color: #666;\">Press \"F\" key</p>\n                    </div>\n                    <div id=\"rightBlock\" class=\"rightBlock\">\n                        <p style=\"font-family: 'Times New Roman', Times, serif; font-size: 18px;\">$10</p>\n                        <p style=\"font-family: 'Times New Roman', Times, serif; font-size: 18px; margin-top: 5px; color: #666;\">Press \"J\" key</p>\n                    </div>\n                </div>\n\n            <div class=\"player2Card\"><p class=\"player2Image\"><img src=src/images/blue_guy.png width=\"150\"></p>\n                <div class=\"player2Name\"><p>KeJo10</p></div>\n            </div>\n            </div>\n        </div>\n        </div>\n    </div>","response":"f","task":"make_choice","trial_type":"html-keyboard-response","trial_index":50,"time_elapsed":916868,"internal_node_id":"0.0-11.0-0.0-5.0-0.0","participant_id":"67cdc3c7ea7918dcd6f2ab2d","choice":1,"player_num":0,"trial_num":6,"binned_trial_num":2,"reward":2,"prop_return":0.5,"prop_return_noise":-0.0017537414580079383,"PID":null},{"rt":null,"stimulus":"<div class=\"gameHeader\">\n        </div>\n    <div class=\"offerCard\" style=\"height: auto; min-height: 90vh; overflow-y: auto; display: flex; justify-content: center;\">\n        <div class=\"bidOffer\" style=\"overflow-y: auto; display: flex; flex-direction: column; justify-content: center;\"><div class=\"outcomeText\"><p style=\"font-family: 'Times New Roman', Times, serif; font-size: 18px;\">You selected $1.00</p>\n\n        <p style=\"font-family: 'Times New Roman', Times, serif; font-size: 18px;\"><br>Your partner is deciding how much to return.</p></div></div>\n    </div>","response":null,"trial_type":"html-keyboard-response","trial_index":51,"time_elapsed":919202,"internal_node_id":"0.0-11.0-0.0-5.0-1.0","participant_id":"67cdc3c7ea7918dcd6f2ab2d","PID":null},{"rt":null,"stimulus":"<div class=\"gameHeader\">\n        </div>\n    <div class=\"offerCard\" style=\"height: auto; min-height: 90vh; overflow-y: auto; display: flex; justify-content: center;\">\n        <div class=\"bidOffer\" style=\"overflow-y: auto; display: flex; flex-direction: column; justify-content: center;\"><div style=\"display: flex; flex-direction: column; align-items: center; justify-content: center; width: 100%;\">\n            <div class=\"player2Card\" style=\"margin-bottom: 20px;\">\n                <p class=\"player2Image\"><img src=src/images/blue_guy.png width=\"150\"></p>\n                <div class=\"player2Name\"><p>KeJo10</p></div>\n            </div>\n\n            <div style=\"background-color: #f8f9fa; border-radius: 10px; padding: 15px; text-align: center; max-width: 400px;\">\n                <p style=\"font-family: 'Times New Roman', Times, serif; font-size: 18px; margin: 0;\">KeJo10 received <strong>$4.00</strong> and returned <strong>$2.00</strong> to you.</p>\n            </div>\n        </div></div>\n    </div>","response":null,"trial_type":"html-keyboard-response","trial_index":52,"time_elapsed":923217,"internal_node_id":"0.0-11.0-0.0-5.0-2.0","participant_id":"67cdc3c7ea7918dcd6f2ab2d","PID":null},{"rt":null,"stimulus":"<div class=\"gameHeader\">\n        </div>\n    <div class=\"offerCard\" style=\"height: auto; min-height: 90vh; overflow-y: auto; display: flex; justify-content: center;\">\n        <div class=\"bidOffer\" style=\"overflow-y: auto; display: flex; flex-direction: column; justify-content: center;\"><div class=\"outcomeText\"><p style=\"font-family: 'Times New Roman', Times, serif; font-size: 18px;\">The next round will begin momentarily.</p>\n\n    <p style=\"font-family: 'Times New Roman', Times, serif; font-size: 18px;\">Please wait.</p></div></div>\n    </div>","response":null,"trial_type":"html-keyboard-response","trial_index":53,"time_elapsed":925841,"internal_node_id":"0.0-11.0-0.0-5.0-3.0-0.0","participant_id":"67cdc3c7ea7918dcd6f2ab2d","PID":null},{"rt":1131,"stimulus":"<div class=\"gameHeader\">\n        </div>\n    <div class=\"offerCard\" style=\"height: auto; min-height: 90vh; overflow-y: auto; display: flex; justify-content: center;\">\n        <div class=\"bidOffer\" style=\"overflow-y: auto; display: flex; flex-direction: column; justify-content: center;\">\n        <div class=\"offers\">\n        <div class=\"textPrompt\"><p style=\"font-family: 'Times New Roman', Times, serif; font-size: 18px;\">How much money do you want\n        <br>to give ClMa03?</p></div>\n            <div class =\"trustElements\">\n            <div class=\"player1Card\"><p class=\"player1Image\"><img src=\"src/images/gray_guy.png\" width=\"150\"></p>\n                <div class=\"player1Name\"><p style=\"font-family: 'Times New Roman', Times, serif; font-size: 18px;\">CHTH08</p></div>\n            </div>\n\n                <div class=\"investmentCard\">\n                    <div id=\"leftBlock\" class=\"leftBlock\">\n                        <p style=\"font-family: 'Times New Roman', Times, serif; font-size: 18px;\">$1</p>\n                        <p style=\"font-family: 'Times New Roman', Times, serif; font-size: 18px; margin-top: 5px; color: #666;\">Press \"F\" key</p>\n                    </div>\n                    <div id=\"rightBlock\" class=\"rightBlock\">\n                        <p style=\"font-family: 'Times New Roman', Times, serif; font-size: 18px;\">$10</p>\n                        <p style=\"font-family: 'Times New Roman', Times, serif; font-size: 18px; margin-top: 5px; color: #666;\">Press \"J\" key</p>\n                    </div>\n                </div>\n\n            <div class=\"player2Card\"><p class=\"player2Image\"><img src=src/images/red_guy.png width=\"150\"></p>\n                <div class=\"player2Name\"><p>ClMa03</p></div>\n            </div>\n            </div>\n        </div>\n        </div>\n    </div>","response":"f","task":"make_choice","trial_type":"html-keyboard-response","trial_index":54,"time_elapsed":926974,"internal_node_id":"0.0-11.0-0.0-6.0-0.0","participant_id":"67cdc3c7ea7918dcd6f2ab2d","choice":1,"player_num":3,"trial_num":7,"binned_trial_num":3,"reward":1,"prop_return":0.24606149969766758,"prop_return_noise":0.013120560927490473,"PID":null},{"rt":null,"stimulus":"<div class=\"gameHeader\">\n        </div>\n    <div class=\"offerCard\" style=\"height: auto; min-height: 90vh; overflow-y: auto; display: flex; justify-content: center;\">\n        <div class=\"bidOffer\" style=\"overflow-y: auto; display: flex; flex-direction: column; justify-content: center;\"><div class=\"outcomeText\"><p style=\"font-family: 'Times New Roman', Times, serif; font-size: 18px;\">You selected $1.00</p>\n\n        <p style=\"font-family: 'Times New Roman', Times, serif; font-size: 18px;\"><br>Your partner is deciding how much to return.</p></div></div>\n    </div>","response":null,"trial_type":"html-keyboard-response","trial_index":55,"time_elapsed":929515,"internal_node_id":"0.0-11.0-0.0-6.0-1.0","participant_id":"67cdc3c7ea7918dcd6f2ab2d","PID":null},{"rt":null,"stimulus":"<div class=\"gameHeader\">\n        </div>\n    <div class=\"offerCard\" style=\"height: auto; min-height: 90vh; overflow-y: auto; display: flex; justify-content: center;\">\n        <div class=\"bidOffer\" style=\"overflow-y: auto; display: flex; flex-direction: column; justify-content: center;\"><div style=\"display: flex; flex-direction: column; align-items: center; justify-content: center; width: 100%;\">\n            <div class=\"player2Card\" style=\"margin-bottom: 20px;\">\n                <p class=\"player2Image\"><img src=src/images/red_guy.png width=\"150\"></p>\n                <div class=\"player2Name\"><p>ClMa03</p></div>\n            </div>\n\n            <div style=\"background-color: #f8f9fa; border-radius: 10px; padding: 15px; text-align: center; max-width: 400px;\">\n                <p style=\"font-family: 'Times New Roman', Times, serif; font-size: 18px; margin: 0;\">ClMa03 received <strong>$4.00</strong> and returned <strong>$1.00</strong> to you.</p>\n            </div>\n        </div></div>\n    </div>","response":null,"trial_type":"html-keyboard-response","trial_index":56,"time_elapsed":933530,"internal_node_id":"0.0-11.0-0.0-6.0-2.0","participant_id":"67cdc3c7ea7918dcd6f2ab2d","PID":null},{"rt":null,"stimulus":"<div class=\"gameHeader\">\n        </div>\n    <div class=\"offerCard\" style=\"height: auto; min-height: 90vh; overflow-y: auto; display: flex; justify-content: center;\">\n        <div class=\"bidOffer\" style=\"overflow-y: auto; display: flex; flex-direction: column; justify-content: center;\"><div class=\"outcomeText\"><p style=\"font-family: 'Times New Roman', Times, serif; font-size: 18px;\">The next round will begin momentarily.</p>\n\n    <p style=\"font-family: 'Times New Roman', Times, serif; font-size: 18px;\">Please wait.</p></div></div>\n    </div>","response":null,"trial_type":"html-keyboard-response","trial_index":57,"time_elapsed":935610,"internal_node_id":"0.0-11.0-0.0-6.0-3.0-0.0","participant_id":"67cdc3c7ea7918dcd6f2ab2d","PID":null},{"rt":707,"stimulus":"<div class=\"gameHeader\">\n        </div>\n    <div class=\"offerCard\" style=\"height: auto; min-height: 90vh; overflow-y: auto; display: flex; justify-content: center;\">\n        <div class=\"bidOffer\" style=\"overflow-y: auto; display: flex; flex-direction: column; justify-content: center;\">\n        <div class=\"offers\">\n        <div class=\"textPrompt\"><p style=\"font-family: 'Times New Roman', Times, serif; font-size: 18px;\">How much money do you want\n        <br>to give BaSa02?</p></div>\n            <div class =\"trustElements\">\n            <div class=\"player1Card\"><p class=\"player1Image\"><img src=\"src/images/gray_guy.png\" width=\"150\"></p>\n                <div class=\"player1Name\"><p style=\"font-family: 'Times New Roman', Times, serif; font-size: 18px;\">CHTH08</p></div>\n            </div>\n\n                <div class=\"investmentCard\">\n                    <div id=\"leftBlock\" class=\"leftBlock\">\n                        <p style=\"font-family: 'Times New Roman', Times, serif; font-size: 18px;\">$1</p>\n                        <p style=\"font-family: 'Times New Roman', Times, serif; font-size: 18px; margin-top: 5px; color: #666;\">Press \"F\" key</p>\n                    </div>\n                    <div id=\"rightBlock\" class=\"rightBlock\">\n                        <p style=\"font-family: 'Times New Roman', Times, serif; font-size: 18px;\">$10</p>\n                        <p style=\"font-family: 'Times New Roman', Times, serif; font-size: 18px; margin-top: 5px; color: #666;\">Press \"J\" key</p>\n                    </div>\n                </div>\n\n            <div class=\"player2Card\"><p class=\"player2Image\"><img src=src/images/yellow_guy.png width=\"150\"></p>\n                <div class=\"player2Name\"><p>BaSa02</p></div>\n            </div>\n            </div>\n        </div>\n        </div>\n    </div>","response":"j","task":"make_choice","trial_type":"html-keyboard-response","trial_index":58,"time_elapsed":936318,"internal_node_id":"0.0-11.0-0.0-7.0-0.0","participant_id":"67cdc3c7ea7918dcd6f2ab2d","choice":10,"player_num":1,"trial_num":8,"binned_trial_num":3,"reward":19.9,"prop_return":0.4995659248659423,"prop_return_noise":-0.0014944059612755547,"PID":null},{"rt":null,"stimulus":"<div class=\"gameHeader\">\n        </div>\n    <div class=\"offerCard\" style=\"height: auto; min-height: 90vh; overflow-y: auto; display: flex; justify-content: center;\">\n        <div class=\"bidOffer\" style=\"overflow-y: auto; display: flex; flex-direction: column; justify-content: center;\"><div class=\"outcomeText\"><p style=\"font-family: 'Times New Roman', Times, serif; font-size: 18px;\">You selected $10.00</p>\n\n        <p style=\"font-family: 'Times New Roman', Times, serif; font-size: 18px;\"><br>Your partner is deciding how much to return.</p></div></div>\n    </div>","response":null,"trial_type":"html-keyboard-response","trial_index":59,"time_elapsed":938874,"internal_node_id":"0.0-11.0-0.0-7.0-1.0","participant_id":"67cdc3c7ea7918dcd6f2ab2d","PID":null},{"rt":null,"stimulus":"<div class=\"gameHeader\">\n        </div>\n    <div class=\"offerCard\" style=\"height: auto; min-height: 90vh; overflow-y: auto; display: flex; justify-content: center;\">\n        <div class=\"bidOffer\" style=\"overflow-y: auto; display: flex; flex-direction: column; justify-content: center;\"><div style=\"display: flex; flex-direction: column; align-items: center; justify-content: center; width: 100%;\">\n            <div class=\"player2Card\" style=\"margin-bottom: 20px;\">\n                <p class=\"player2Image\"><img src=src/images/yellow_guy.png width=\"150\"></p>\n                <div class=\"player2Name\"><p>BaSa02</p></div>\n            </div>\n\n            <div style=\"background-color: #f8f9fa; border-radius: 10px; padding: 15px; text-align: center; max-width: 400px;\">\n                <p style=\"font-family: 'Times New Roman', Times, serif; font-size: 18px; margin: 0;\">BaSa02 received <strong>$40.00</strong> and returned <strong>$19.90</strong> to you.</p>\n            </div>\n        </div></div>\n    </div>","response":null,"trial_type":"html-keyboard-response","trial_index":60,"time_elapsed":942890,"internal_node_id":"0.0-11.0-0.0-7.0-2.0","participant_id":"67cdc3c7ea7918dcd6f2ab2d","PID":null},{"rt":null,"stimulus":"<div class=\"gameHeader\">\n        </div>\n    <div class=\"offerCard\" style=\"height: auto; min-height: 90vh; overflow-y: auto; display: flex; justify-content: center;\">\n        <div class=\"bidOffer\" style=\"overflow-y: auto; display: flex; flex-direction: column; justify-content: center;\"><div class=\"outcomeText\"><p style=\"font-family: 'Times New Roman', Times, serif; font-size: 18px;\">The next round will begin momentarily.</p>\n\n    <p style=\"font-family: 'Times New Roman', Times, serif; font-size: 18px;\">Please wait.</p></div></div>\n    </div>","response":null,"trial_type":"html-keyboard-response","trial_index":61,"time_elapsed":946358,"internal_node_id":"0.0-11.0-0.0-7.0-3.0-0.0","participant_id":"67cdc3c7ea7918dcd6f2ab2d","PID":null},{"rt":699,"stimulus":"<div class=\"gameHeader\">\n        </div>\n    <div class=\"offerCard\" style=\"height: auto; min-height: 90vh; overflow-y: auto; display: flex; justify-content: center;\">\n        <div class=\"bidOffer\" style=\"overflow-y: auto; display: flex; flex-direction: column; justify-content: center;\">\n        <div class=\"offers\">\n        <div class=\"textPrompt\"><p style=\"font-family: 'Times New Roman', Times, serif; font-size: 18px;\">How much money do you want\n        <br>to give ClMa03?</p></div>\n            <div class =\"trustElements\">\n            <div class=\"player1Card\"><p class=\"player1Image\"><img src=\"src/images/gray_guy.png\" width=\"150\"></p>\n                <div class=\"player1Name\"><p style=\"font-family: 'Times New Roman', Times, serif; font-size: 18px;\">CHTH08</p></div>\n            </div>\n\n                <div class=\"investmentCard\">\n                    <div id=\"leftBlock\" class=\"leftBlock\">\n                        <p style=\"font-family: 'Times New Roman', Times, serif; font-size: 18px;\">$1</p>\n                        <p style=\"font-family: 'Times New Roman', Times, serif; font-size: 18px; margin-top: 5px; color: #666;\">Press \"F\" key</p>\n                    </div>\n                    <div id=\"rightBlock\" class=\"rightBlock\">\n                        <p style=\"font-family: 'Times New Roman', Times, serif; font-size: 18px;\">$10</p>\n                        <p style=\"font-family: 'Times New Roman', Times, serif; font-size: 18px; margin-top: 5px; color: #666;\">Press \"J\" key</p>\n                    </div>\n                </div>\n\n            <div class=\"player2Card\"><p class=\"player2Image\"><img src=src/images/red_guy.png width=\"150\"></p>\n                <div class=\"player2Name\"><p>ClMa03</p></div>\n            </div>\n            </div>\n        </div>\n        </div>\n    </div>","response":"j","task":"make_choice","trial_type":"html-keyboard-response","trial_index":62,"time_elapsed":947058,"internal_node_id":"0.0-11.0-0.0-8.0-0.0","participant_id":"67cdc3c7ea7918dcd6f2ab2d","choice":10,"player_num":3,"trial_num":9,"binned_trial_num":3,"reward":10.1,"prop_return":0.24792255803566482,"prop_return_noise":0.00529338527874982,"PID":null},{"rt":null,"stimulus":"<div class=\"gameHeader\">\n        </div>\n    <div class=\"offerCard\" style=\"height: auto; min-height: 90vh; overflow-y: auto; display: flex; justify-content: center;\">\n        <div class=\"bidOffer\" style=\"overflow-y: auto; display: flex; flex-direction: column; justify-content: center;\"><div class=\"outcomeText\"><p style=\"font-family: 'Times New Roman', Times, serif; font-size: 18px;\">You selected $10.00</p>\n\n        <p style=\"font-family: 'Times New Roman', Times, serif; font-size: 18px;\"><br>Your partner is deciding how much to return.</p></div></div>\n    </div>","response":null,"trial_type":"html-keyboard-response","trial_index":63,"time_elapsed":949749,"internal_node_id":"0.0-11.0-0.0-8.0-1.0","participant_id":"67cdc3c7ea7918dcd6f2ab2d","PID":null},{"rt":null,"stimulus":"<div class=\"gameHeader\">\n        </div>\n    <div class=\"offerCard\" style=\"height: auto; min-height: 90vh; overflow-y: auto; display: flex; justify-content: center;\">\n        <div class=\"bidOffer\" style=\"overflow-y: auto; display: flex; flex-direction: column; justify-content: center;\"><div style=\"display: flex; flex-direction: column; align-items: center; justify-content: center; width: 100%;\">\n            <div class=\"player2Card\" style=\"margin-bottom: 20px;\">\n                <p class=\"player2Image\"><img src=src/images/red_guy.png width=\"150\"></p>\n                <div class=\"player2Name\"><p>ClMa03</p></div>\n            </div>\n\n            <div style=\"background-color: #f8f9fa; border-radius: 10px; padding: 15px; text-align: center; max-width: 400px;\">\n                <p style=\"font-family: 'Times New Roman', Times, serif; font-size: 18px; margin: 0;\">ClMa03 received <strong>$40.00</strong> and returned <strong>$10.10</strong> to you.</p>\n            </div>\n        </div></div>\n    </div>","response":null,"trial_type":"html-keyboard-response","trial_index":64,"time_elapsed":953766,"internal_node_id":"0.0-11.0-0.0-8.0-2.0","participant_id":"67cdc3c7ea7918dcd6f2ab2d","PID":null},{"rt":null,"stimulus":"<div class=\"gameHeader\">\n        </div>\n    <div class=\"offerCard\" style=\"height: auto; min-height: 90vh; overflow-y: auto; display: flex; justify-content: center;\">\n        <div class=\"bidOffer\" style=\"overflow-y: auto; display: flex; flex-direction: column; justify-content: center;\"><div class=\"outcomeText\"><p style=\"font-family: 'Times New Roman', Times, serif; font-size: 18px;\">The next round will begin momentarily.</p>\n\n    <p style=\"font-family: 'Times New Roman', Times, serif; font-size: 18px;\">Please wait.</p></div></div>\n    </div>","response":null,"trial_type":"html-keyboard-response","trial_index":65,"time_elapsed":957203,"internal_node_id":"0.0-11.0-0.0-8.0-3.0-0.0","participant_id":"67cdc3c7ea7918dcd6f2ab2d","PID":null},{"rt":740,"stimulus":"<div class=\"gameHeader\">\n        </div>\n    <div class=\"offerCard\" style=\"height: auto; min-height: 90vh; overflow-y: auto; display: flex; justify-content: center;\">\n        <div class=\"bidOffer\" style=\"overflow-y: auto; display: flex; flex-direction: column; justify-content: center;\">\n        <div class=\"offers\">\n        <div class=\"textPrompt\"><p style=\"font-family: 'Times New Roman', Times, serif; font-size: 18px;\">How much money do you want\n        <br>to give GePl10?</p></div>\n            <div class =\"trustElements\">\n            <div class=\"player1Card\"><p class=\"player1Image\"><img src=\"src/images/gray_guy.png\" width=\"150\"></p>\n                <div class=\"player1Name\"><p style=\"font-family: 'Times New Roman', Times, serif; font-size: 18px;\">CHTH08</p></div>\n            </div>\n\n                <div class=\"investmentCard\">\n                    <div id=\"leftBlock\" class=\"leftBlock\">\n                        <p style=\"font-family: 'Times New Roman', Times, serif; font-size: 18px;\">$1</p>\n                        <p style=\"font-family: 'Times New Roman', Times, serif; font-size: 18px; margin-top: 5px; color: #666;\">Press \"F\" key</p>\n                    </div>\n                    <div id=\"rightBlock\" class=\"rightBlock\">\n                        <p style=\"font-family: 'Times New Roman', Times, serif; font-size: 18px;\">$10</p>\n                        <p style=\"font-family: 'Times New Roman', Times, serif; font-size: 18px; margin-top: 5px; color: #666;\">Press \"J\" key</p>\n                    </div>\n                </div>\n\n            <div class=\"player2Card\"><p class=\"player2Image\"><img src=src/images/green_guy.png width=\"150\"></p>\n                <div class=\"player2Name\"><p>GePl10</p></div>\n            </div>\n            </div>\n        </div>\n        </div>\n    </div>","response":"f","task":"make_choice","trial_type":"html-keyboard-response","trial_index":66,"time_elapsed":957944,"internal_node_id":"0.0-11.0-0.0-9.0-0.0","participant_id":"67cdc3c7ea7918dcd6f2ab2d","choice":1,"player_num":2,"trial_num":10,"binned_trial_num":4,"reward":1,"prop_return":0.23871512701123507,"prop_return_noise":0.0048254790604905515,"PID":null},{"rt":null,"stimulus":"<div class=\"gameHeader\">\n        </div>\n    <div class=\"offerCard\" style=\"height: auto; min-height: 90vh; overflow-y: auto; display: flex; justify-content: center;\">\n        <div class=\"bidOffer\" style=\"overflow-y: auto; display: flex; flex-direction: column; justify-content: center;\"><div class=\"outcomeText\"><p style=\"font-family: 'Times New Roman', Times, serif; font-size: 18px;\">You selected $1.00</p>\n\n        <p style=\"font-family: 'Times New Roman', Times, serif; font-size: 18px;\"><br>Your partner is deciding how much to return.</p></div></div>\n    </div>","response":null,"trial_type":"html-keyboard-response","trial_index":67,"time_elapsed":960202,"internal_node_id":"0.0-11.0-0.0-9.0-1.0","participant_id":"67cdc3c7ea7918dcd6f2ab2d","PID":null},{"rt":null,"stimulus":"<div class=\"gameHeader\">\n        </div>\n    <div class=\"offerCard\" style=\"height: auto; min-height: 90vh; overflow-y: auto; display: flex; justify-content: center;\">\n        <div class=\"bidOffer\" style=\"overflow-y: auto; display: flex; flex-direction: column; justify-content: center;\"><div style=\"display: flex; flex-direction: column; align-items: center; justify-content: center; width: 100%;\">\n            <div class=\"player2Card\" style=\"margin-bottom: 20px;\">\n                <p class=\"player2Image\"><img src=src/images/green_guy.png width=\"150\"></p>\n                <div class=\"player2Name\"><p>GePl10</p></div>\n            </div>\n\n            <div style=\"background-color: #f8f9fa; border-radius: 10px; padding: 15px; text-align: center; max-width: 400px;\">\n                <p style=\"font-family: 'Times New Roman', Times, serif; font-size: 18px; margin: 0;\">GePl10 received <strong>$4.00</strong> and returned <strong>$1.00</strong> to you.</p>\n            </div>\n        </div></div>\n    </div>","response":null,"trial_type":"html-keyboard-response","trial_index":68,"time_elapsed":964217,"internal_node_id":"0.0-11.0-0.0-9.0-2.0","participant_id":"67cdc3c7ea7918dcd6f2ab2d","PID":null},{"rt":null,"stimulus":"<div class=\"gameHeader\">\n        </div>\n    <div class=\"offerCard\" style=\"height: auto; min-height: 90vh; overflow-y: auto; display: flex; justify-content: center;\">\n        <div class=\"bidOffer\" style=\"overflow-y: auto; display: flex; flex-direction: column; justify-content: center;\"><div class=\"outcomeText\"><p style=\"font-family: 'Times New Roman', Times, serif; font-size: 18px;\">The next round will begin momentarily.</p>\n\n    <p style=\"font-family: 'Times New Roman', Times, serif; font-size: 18px;\">Please wait.</p></div></div>\n    </div>","response":null,"trial_type":"html-keyboard-response","trial_index":69,"time_elapsed":967312,"internal_node_id":"0.0-11.0-0.0-9.0-3.0-0.0","participant_id":"67cdc3c7ea7918dcd6f2ab2d","PID":null},{"rt":820,"stimulus":"<div class=\"gameHeader\">\n        </div>\n    <div class=\"offerCard\" style=\"height: auto; min-height: 90vh; overflow-y: auto; display: flex; justify-content: center;\">\n        <div class=\"bidOffer\" style=\"overflow-y: auto; display: flex; flex-direction: column; justify-content: center;\">\n        <div class=\"offers\">\n        <div class=\"textPrompt\"><p style=\"font-family: 'Times New Roman', Times, serif; font-size: 18px;\">How much money do you want\n        <br>to give KeJo10?</p></div>\n            <div class =\"trustElements\">\n            <div class=\"player1Card\"><p class=\"player1Image\"><img src=\"src/images/gray_guy.png\" width=\"150\"></p>\n                <div class=\"player1Name\"><p style=\"font-family: 'Times New Roman', Times, serif; font-size: 18px;\">CHTH08</p></div>\n            </div>\n\n                <div class=\"investmentCard\">\n                    <div id=\"leftBlock\" class=\"leftBlock\">\n                        <p style=\"font-family: 'Times New Roman', Times, serif; font-size: 18px;\">$1</p>\n                        <p style=\"font-family: 'Times New Roman', Times, serif; font-size: 18px; margin-top: 5px; color: #666;\">Press \"F\" key</p>\n                    </div>\n                    <div id=\"rightBlock\" class=\"rightBlock\">\n                        <p style=\"font-family: 'Times New Roman', Times, serif; font-size: 18px;\">$10</p>\n                        <p style=\"font-family: 'Times New Roman', Times, serif; font-size: 18px; margin-top: 5px; color: #666;\">Press \"J\" key</p>\n                    </div>\n                </div>\n\n            <div class=\"player2Card\"><p class=\"player2Image\"><img src=src/images/blue_guy.png width=\"150\"></p>\n                <div class=\"player2Name\"><p>KeJo10</p></div>\n            </div>\n            </div>\n        </div>\n        </div>\n    </div>","response":"j","task":"make_choice","trial_type":"html-keyboard-response","trial_index":70,"time_elapsed":968132,"internal_node_id":"0.0-11.0-0.0-10.0-0.0","participant_id":"67cdc3c7ea7918dcd6f2ab2d","choice":10,"player_num":0,"trial_num":11,"binned_trial_num":4,"reward":20,"prop_return":0.5,"prop_return_noise":0.003851810958569494,"PID":null},{"rt":null,"stimulus":"<div class=\"gameHeader\">\n        </div>\n    <div class=\"offerCard\" style=\"height: auto; min-height: 90vh; overflow-y: auto; display: flex; justify-content: center;\">\n        <div class=\"bidOffer\" style=\"overflow-y: auto; display: flex; flex-direction: column; justify-content: center;\"><div class=\"outcomeText\"><p style=\"font-family: 'Times New Roman', Times, serif; font-size: 18px;\">You selected $10.00</p>\n\n        <p style=\"font-family: 'Times New Roman', Times, serif; font-size: 18px;\"><br>Your partner is deciding how much to return.</p></div></div>\n    </div>","response":null,"trial_type":"html-keyboard-response","trial_index":71,"time_elapsed":971857,"internal_node_id":"0.0-11.0-0.0-10.0-1.0","participant_id":"67cdc3c7ea7918dcd6f2ab2d","PID":null},{"rt":null,"stimulus":"<div class=\"gameHeader\">\n        </div>\n    <div class=\"offerCard\" style=\"height: auto; min-height: 90vh; overflow-y: auto; display: flex; justify-content: center;\">\n        <div class=\"bidOffer\" style=\"overflow-y: auto; display: flex; flex-direction: column; justify-content: center;\"><div style=\"display: flex; flex-direction: column; align-items: center; justify-content: center; width: 100%;\">\n            <div class=\"player2Card\" style=\"margin-bottom: 20px;\">\n                <p class=\"player2Image\"><img src=src/images/blue_guy.png width=\"150\"></p>\n                <div class=\"player2Name\"><p>KeJo10</p></div>\n            </div>\n\n            <div style=\"background-color: #f8f9fa; border-radius: 10px; padding: 15px; text-align: center; max-width: 400px;\">\n                <p style=\"font-family: 'Times New Roman', Times, serif; font-size: 18px; margin: 0;\">KeJo10 received <strong>$40.00</strong> and returned <strong>$20.00</strong> to you.</p>\n            </div>\n        </div></div>\n    </div>","response":null,"trial_type":"html-keyboard-response","trial_index":72,"time_elapsed":975860,"internal_node_id":"0.0-11.0-0.0-10.0-2.0","participant_id":"67cdc3c7ea7918dcd6f2ab2d","PID":null},{"rt":null,"stimulus":"<div class=\"gameHeader\">\n        </div>\n    <div class=\"offerCard\" style=\"height: auto; min-height: 90vh; overflow-y: auto; display: flex; justify-content: center;\">\n        <div class=\"bidOffer\" style=\"overflow-y: auto; display: flex; flex-direction: column; justify-content: center;\"><div class=\"outcomeText\"><p style=\"font-family: 'Times New Roman', Times, serif; font-size: 18px;\">The next round will begin momentarily.</p>\n\n    <p style=\"font-family: 'Times New Roman', Times, serif; font-size: 18px;\">Please wait.</p></div></div>\n    </div>","response":null,"trial_type":"html-keyboard-response","trial_index":73,"time_elapsed":978404,"internal_node_id":"0.0-11.0-0.0-10.0-3.0-0.0","participant_id":"67cdc3c7ea7918dcd6f2ab2d","PID":null},{"rt":1255,"stimulus":"<div class=\"gameHeader\">\n        </div>\n    <div class=\"offerCard\" style=\"height: auto; min-height: 90vh; overflow-y: auto; display: flex; justify-content: center;\">\n        <div class=\"bidOffer\" style=\"overflow-y: auto; display: flex; flex-direction: column; justify-content: center;\">\n        <div class=\"offers\">\n        <div class=\"textPrompt\"><p style=\"font-family: 'Times New Roman', Times, serif; font-size: 18px;\">How much money do you want\n        <br>to give BaSa02?</p></div>\n            <div class =\"trustElements\">\n            <div class=\"player1Card\"><p class=\"player1Image\"><img src=\"src/images/gray_guy.png\" width=\"150\"></p>\n                <div class=\"player1Name\"><p style=\"font-family: 'Times New Roman', Times, serif; font-size: 18px;\">CHTH08</p></div>\n            </div>\n\n                <div class=\"investmentCard\">\n                    <div id=\"leftBlock\" class=\"leftBlock\">\n                        <p style=\"font-family: 'Times New Roman', Times, serif; font-size: 18px;\">$1</p>\n                        <p style=\"font-family: 'Times New Roman', Times, serif; font-size: 18px; margin-top: 5px; color: #666;\">Press \"F\" key</p>\n                    </div>\n                    <div id=\"rightBlock\" class=\"rightBlock\">\n                        <p style=\"font-family: 'Times New Roman', Times, serif; font-size: 18px;\">$10</p>\n                        <p style=\"font-family: 'Times New Roman', Times, serif; font-size: 18px; margin-top: 5px; color: #666;\">Press \"J\" key</p>\n                    </div>\n                </div>\n\n            <div class=\"player2Card\"><p class=\"player2Image\"><img src=src/images/yellow_guy.png width=\"150\"></p>\n                <div class=\"player2Name\"><p>BaSa02</p></div>\n            </div>\n            </div>\n        </div>\n        </div>\n    </div>","response":"f","task":"make_choice","trial_type":"html-keyboard-response","trial_index":74,"time_elapsed":979660,"internal_node_id":"0.0-11.0-0.0-11.0-0.0","participant_id":"67cdc3c7ea7918dcd6f2ab2d","choice":1,"player_num":1,"trial_num":12,"binned_trial_num":4,"reward":1.9,"prop_return":0.49155944930628054,"prop_return_noise":-0.014502402537321617,"PID":null},{"rt":null,"stimulus":"<div class=\"gameHeader\">\n        </div>\n    <div class=\"offerCard\" style=\"height: auto; min-height: 90vh; overflow-y: auto; display: flex; justify-content: center;\">\n        <div class=\"bidOffer\" style=\"overflow-y: auto; display: flex; flex-direction: column; justify-content: center;\"><div class=\"outcomeText\"><p style=\"font-family: 'Times New Roman', Times, serif; font-size: 18px;\">You selected $1.00</p>\n\n        <p style=\"font-family: 'Times New Roman', Times, serif; font-size: 18px;\"><br>Your partner is deciding how much to return.</p></div></div>\n    </div>","response":null,"trial_type":"html-keyboard-response","trial_index":75,"time_elapsed":982981,"internal_node_id":"0.0-11.0-0.0-11.0-1.0","participant_id":"67cdc3c7ea7918dcd6f2ab2d","PID":null},{"rt":null,"stimulus":"<div class=\"gameHeader\">\n        </div>\n    <div class=\"offerCard\" style=\"height: auto; min-height: 90vh; overflow-y: auto; display: flex; justify-content: center;\">\n        <div class=\"bidOffer\" style=\"overflow-y: auto; display: flex; flex-direction: column; justify-content: center;\"><div style=\"display: flex; flex-direction: column; align-items: center; justify-content: center; width: 100%;\">\n            <div class=\"player2Card\" style=\"margin-bottom: 20px;\">\n                <p class=\"player2Image\"><img src=src/images/yellow_guy.png width=\"150\"></p>\n                <div class=\"player2Name\"><p>BaSa02</p></div>\n            </div>\n\n            <div style=\"background-color: #f8f9fa; border-radius: 10px; padding: 15px; text-align: center; max-width: 400px;\">\n                <p style=\"font-family: 'Times New Roman', Times, serif; font-size: 18px; margin: 0;\">BaSa02 received <strong>$4.00</strong> and returned <strong>$1.90</strong> to you.</p>\n            </div>\n        </div></div>\n    </div>","response":null,"trial_type":"html-keyboard-response","trial_index":76,"time_elapsed":986984,"internal_node_id":"0.0-11.0-0.0-11.0-2.0","participant_id":"67cdc3c7ea7918dcd6f2ab2d","PID":null},{"rt":null,"stimulus":"<div class=\"gameHeader\">\n        </div>\n    <div class=\"offerCard\" style=\"height: auto; min-height: 90vh; overflow-y: auto; display: flex; justify-content: center;\">\n        <div class=\"bidOffer\" style=\"overflow-y: auto; display: flex; flex-direction: column; justify-content: center;\"><div class=\"outcomeText\"><p style=\"font-family: 'Times New Roman', Times, serif; font-size: 18px;\">The next round will begin momentarily.</p>\n\n    <p style=\"font-family: 'Times New Roman', Times, serif; font-size: 18px;\">Please wait.</p></div></div>\n    </div>","response":null,"trial_type":"html-keyboard-response","trial_index":77,"time_elapsed":990688,"internal_node_id":"0.0-11.0-0.0-11.0-3.0-0.0","participant_id":"67cdc3c7ea7918dcd6f2ab2d","PID":null},{"rt":672,"stimulus":"<div class=\"gameHeader\">\n        </div>\n    <div class=\"offerCard\" style=\"height: auto; min-height: 90vh; overflow-y: auto; display: flex; justify-content: center;\">\n        <div class=\"bidOffer\" style=\"overflow-y: auto; display: flex; flex-direction: column; justify-content: center;\">\n        <div class=\"offers\">\n        <div class=\"textPrompt\"><p style=\"font-family: 'Times New Roman', Times, serif; font-size: 18px;\">How much money do you want\n        <br>to give GePl10?</p></div>\n            <div class =\"trustElements\">\n            <div class=\"player1Card\"><p class=\"player1Image\"><img src=\"src/images/gray_guy.png\" width=\"150\"></p>\n                <div class=\"player1Name\"><p style=\"font-family: 'Times New Roman', Times, serif; font-size: 18px;\">CHTH08</p></div>\n            </div>\n\n                <div class=\"investmentCard\">\n                    <div id=\"leftBlock\" class=\"leftBlock\">\n                        <p style=\"font-family: 'Times New Roman', Times, serif; font-size: 18px;\">$1</p>\n                        <p style=\"font-family: 'Times New Roman', Times, serif; font-size: 18px; margin-top: 5px; color: #666;\">Press \"F\" key</p>\n                    </div>\n                    <div id=\"rightBlock\" class=\"rightBlock\">\n                        <p style=\"font-family: 'Times New Roman', Times, serif; font-size: 18px;\">$10</p>\n                        <p style=\"font-family: 'Times New Roman', Times, serif; font-size: 18px; margin-top: 5px; color: #666;\">Press \"J\" key</p>\n                    </div>\n                </div>\n\n            <div class=\"player2Card\"><p class=\"player2Image\"><img src=src/images/green_guy.png width=\"150\"></p>\n                <div class=\"player2Name\"><p>GePl10</p></div>\n            </div>\n            </div>\n        </div>\n        </div>\n    </div>","response":"j","task":"make_choice","trial_type":"html-keyboard-response","trial_index":78,"time_elapsed":991361,"internal_node_id":"0.0-11.0-0.0-12.0-0.0","participant_id":"67cdc3c7ea7918dcd6f2ab2d","choice":10,"player_num":2,"trial_num":13,"binned_trial_num":5,"reward":10.5,"prop_return":0.2701353402684198,"prop_return_noise":-0.007300079068589795,"PID":null},{"rt":null,"stimulus":"<div class=\"gameHeader\">\n        </div>\n    <div class=\"offerCard\" style=\"height: auto; min-height: 90vh; overflow-y: auto; display: flex; justify-content: center;\">\n        <div class=\"bidOffer\" style=\"overflow-y: auto; display: flex; flex-direction: column; justify-content: center;\"><div class=\"outcomeText\"><p style=\"font-family: 'Times New Roman', Times, serif; font-size: 18px;\">You selected $10.00</p>\n\n        <p style=\"font-family: 'Times New Roman', Times, serif; font-size: 18px;\"><br>Your partner is deciding how much to return.</p></div></div>\n    </div>","response":null,"trial_type":"html-keyboard-response","trial_index":79,"time_elapsed":993904,"internal_node_id":"0.0-11.0-0.0-12.0-1.0","participant_id":"67cdc3c7ea7918dcd6f2ab2d","PID":null},{"rt":null,"stimulus":"<div class=\"gameHeader\">\n        </div>\n    <div class=\"offerCard\" style=\"height: auto; min-height: 90vh; overflow-y: auto; display: flex; justify-content: center;\">\n        <div class=\"bidOffer\" style=\"overflow-y: auto; display: flex; flex-direction: column; justify-content: center;\"><div style=\"display: flex; flex-direction: column; align-items: center; justify-content: center; width: 100%;\">\n            <div class=\"player2Card\" style=\"margin-bottom: 20px;\">\n                <p class=\"player2Image\"><img src=src/images/green_guy.png width=\"150\"></p>\n                <div class=\"player2Name\"><p>GePl10</p></div>\n            </div>\n\n            <div style=\"background-color: #f8f9fa; border-radius: 10px; padding: 15px; text-align: center; max-width: 400px;\">\n                <p style=\"font-family: 'Times New Roman', Times, serif; font-size: 18px; margin: 0;\">GePl10 received <strong>$40.00</strong> and returned <strong>$10.50</strong> to you.</p>\n            </div>\n        </div></div>\n    </div>","response":null,"trial_type":"html-keyboard-response","trial_index":80,"time_elapsed":997906,"internal_node_id":"0.0-11.0-0.0-12.0-2.0","participant_id":"67cdc3c7ea7918dcd6f2ab2d","PID":null},{"rt":null,"stimulus":"<div class=\"gameHeader\">\n        </div>\n    <div class=\"offerCard\" style=\"height: auto; min-height: 90vh; overflow-y: auto; display: flex; justify-content: center;\">\n        <div class=\"bidOffer\" style=\"overflow-y: auto; display: flex; flex-direction: column; justify-content: center;\"><div class=\"outcomeText\"><p style=\"font-family: 'Times New Roman', Times, serif; font-size: 18px;\">The next round will begin momentarily.</p>\n\n    <p style=\"font-family: 'Times New Roman', Times, serif; font-size: 18px;\">Please wait.</p></div></div>\n    </div>","response":null,"trial_type":"html-keyboard-response","trial_index":81,"time_elapsed":1001108,"internal_node_id":"0.0-11.0-0.0-12.0-3.0-0.0","participant_id":"67cdc3c7ea7918dcd6f2ab2d","PID":null},{"rt":1294,"stimulus":"<div class=\"gameHeader\">\n        </div>\n    <div class=\"offerCard\" style=\"height: auto; min-height: 90vh; overflow-y: auto; display: flex; justify-content: center;\">\n        <div class=\"bidOffer\" style=\"overflow-y: auto; display: flex; flex-direction: column; justify-content: center;\">\n        <div class=\"offers\">\n        <div class=\"textPrompt\"><p style=\"font-family: 'Times New Roman', Times, serif; font-size: 18px;\">How much money do you want\n        <br>to give BaSa02?</p></div>\n            <div class =\"trustElements\">\n            <div class=\"player1Card\"><p class=\"player1Image\"><img src=\"src/images/gray_guy.png\" width=\"150\"></p>\n                <div class=\"player1Name\"><p style=\"font-family: 'Times New Roman', Times, serif; font-size: 18px;\">CHTH08</p></div>\n            </div>\n\n                <div class=\"investmentCard\">\n                    <div id=\"leftBlock\" class=\"leftBlock\">\n                        <p style=\"font-family: 'Times New Roman', Times, serif; font-size: 18px;\">$1</p>\n                        <p style=\"font-family: 'Times New Roman', Times, serif; font-size: 18px; margin-top: 5px; color: #666;\">Press \"F\" key</p>\n                    </div>\n                    <div id=\"rightBlock\" class=\"rightBlock\">\n                        <p style=\"font-family: 'Times New Roman', Times, serif; font-size: 18px;\">$10</p>\n                        <p style=\"font-family: 'Times New Roman', Times, serif; font-size: 18px; margin-top: 5px; color: #666;\">Press \"J\" key</p>\n                    </div>\n                </div>\n\n            <div class=\"player2Card\"><p class=\"player2Image\"><img src=src/images/yellow_guy.png width=\"150\"></p>\n                <div class=\"player2Name\"><p>BaSa02</p></div>\n            </div>\n            </div>\n        </div>\n        </div>\n    </div>","response":"f","task":"make_choice","trial_type":"html-keyboard-response","trial_index":82,"time_elapsed":1002404,"internal_node_id":"0.0-11.0-0.0-13.0-0.0","participant_id":"67cdc3c7ea7918dcd6f2ab2d","choice":1,"player_num":1,"trial_num":14,"binned_trial_num":5,"reward":2,"prop_return":0.4945222244108515,"prop_return_noise":-0.002845908711209755,"PID":null},{"rt":null,"stimulus":"<div class=\"gameHeader\">\n        </div>\n    <div class=\"offerCard\" style=\"height: auto; min-height: 90vh; overflow-y: auto; display: flex; justify-content: center;\">\n        <div class=\"bidOffer\" style=\"overflow-y: auto; display: flex; flex-direction: column; justify-content: center;\"><div class=\"outcomeText\"><p style=\"font-family: 'Times New Roman', Times, serif; font-size: 18px;\">You selected $1.00</p>\n\n        <p style=\"font-family: 'Times New Roman', Times, serif; font-size: 18px;\"><br>Your partner is deciding how much to return.</p></div></div>\n    </div>","response":null,"trial_type":"html-keyboard-response","trial_index":83,"time_elapsed":1005717,"internal_node_id":"0.0-11.0-0.0-13.0-1.0","participant_id":"67cdc3c7ea7918dcd6f2ab2d","PID":null},{"rt":null,"stimulus":"<div class=\"gameHeader\">\n        </div>\n    <div class=\"offerCard\" style=\"height: auto; min-height: 90vh; overflow-y: auto; display: flex; justify-content: center;\">\n        <div class=\"bidOffer\" style=\"overflow-y: auto; display: flex; flex-direction: column; justify-content: center;\"><div style=\"display: flex; flex-direction: column; align-items: center; justify-content: center; width: 100%;\">\n            <div class=\"player2Card\" style=\"margin-bottom: 20px;\">\n                <p class=\"player2Image\"><img src=src/images/yellow_guy.png width=\"150\"></p>\n                <div class=\"player2Name\"><p>BaSa02</p></div>\n            </div>\n\n            <div style=\"background-color: #f8f9fa; border-radius: 10px; padding: 15px; text-align: center; max-width: 400px;\">\n                <p style=\"font-family: 'Times New Roman', Times, serif; font-size: 18px; margin: 0;\">BaSa02 received <strong>$4.00</strong> and returned <strong>$2.00</strong> to you.</p>\n            </div>\n        </div></div>\n    </div>","response":null,"trial_type":"html-keyboard-response","trial_index":84,"time_elapsed":1009748,"internal_node_id":"0.0-11.0-0.0-13.0-2.0","participant_id":"67cdc3c7ea7918dcd6f2ab2d","PID":null},{"rt":null,"stimulus":"<div class=\"gameHeader\">\n        </div>\n    <div class=\"offerCard\" style=\"height: auto; min-height: 90vh; overflow-y: auto; display: flex; justify-content: center;\">\n        <div class=\"bidOffer\" style=\"overflow-y: auto; display: flex; flex-direction: column; justify-content: center;\"><div class=\"outcomeText\"><p style=\"font-family: 'Times New Roman', Times, serif; font-size: 18px;\">The next round will begin momentarily.</p>\n\n    <p style=\"font-family: 'Times New Roman', Times, serif; font-size: 18px;\">Please wait.</p></div></div>\n    </div>","response":null,"trial_type":"html-keyboard-response","trial_index":85,"time_elapsed":1012248,"internal_node_id":"0.0-11.0-0.0-13.0-3.0-0.0","participant_id":"67cdc3c7ea7918dcd6f2ab2d","PID":null},{"rt":406,"stimulus":"<div class=\"gameHeader\">\n        </div>